<?xml version="1.0" encoding="UTF-8"?>
<?xml-stylesheet type="text/xsl" href="define2-1-0.xsl"?>
<ODM
     xmlns:xlink="http://www.w3.org/1999/xlink"
     xmlns="http://www.cdisc.org/ns/odm/v1.3"
     xmlns:def="http://www.cdisc.org/ns/def/v2.1"
     ODMVersion="1.3.2"
     FileType="Snapshot"
     FileOID="MJR-MR001-01.SDTMIG.3.2"
     CreationDateTime="2025-06-28T04:46:38+08:00"
     SourceSystem="Pinnacle 21 Community"
     SourceSystemVersion="4.1.0"
     def:Context="Submission">
   <Study OID="MJR-MR001-01.SDTMIG.3.2">
      <GlobalVariables>
         <StudyName>MJR-MR001-01</StudyName>
         <StudyDescription>评价双特异性抗体MR001在晚期实体瘤患者中的安全性、耐受性的临床研究</StudyDescription>
         <ProtocolName>MJR-MR001-01</ProtocolName>
      </GlobalVariables>
      <MetaDataVersion OID="MDV.MJR-MR001-01.SDTMIG.3.2" Name="Study MJR-MR001-01 Data Definitions"
                       def:DefineVersion="2.1.0">
         <def:Standards>
            <def:Standard OID="STD.SDTMIG 3.2" Name="SDTMIG" Type="IG" Version="3.2" Status="FINAL"/>
            <def:Standard OID="STD.SDTM Terminology 2023-06-30" Name="CDISC/NCI" Type="CT"
                          Version="2023-06-30"
                          PublishingSet="SDTM Terminology"
                          Status="FINAL"/>
            <def:Standard OID="STD.SDTM Terminology 2024-09-27" Name="CDISC/NCI" Type="CT"
                          Version="2024-09-27"
                          PublishingSet="SDTM Terminology"
                          Status="FINAL"/>
         </def:Standards>
         <def:AnnotatedCRF>
            <def:DocumentRef leafID="LF.acrf"/>
         </def:AnnotatedCRF>
         <def:SupplementalDoc>
            <def:DocumentRef leafID="LF.csdrg"/>
         </def:SupplementalDoc>
         <def:ValueListDef OID="VL.EG.EGORRES">
            <ItemRef ItemOID="IT.EG.EGORRES.EG.EGTESTCD.EQ.INTP" OrderNumber="1" Mandatory="No">
               <def:WhereClauseRef WhereClauseOID="WC.EG.EGTESTCD.EQ.INTP"/>
            </ItemRef>
            <ItemRef ItemOID="IT.EG.EGORRES.EG.EGTESTCD.EQ.PRAG" OrderNumber="2" Mandatory="No">
               <def:WhereClauseRef WhereClauseOID="WC.EG.EGTESTCD.EQ.PRAG"/>
            </ItemRef>
            <ItemRef ItemOID="IT.EG.EGORRES.EG.EGTESTCD.EQ.PULSE" OrderNumber="3" Mandatory="No">
               <def:WhereClauseRef WhereClauseOID="WC.EG.EGTESTCD.EQ.PULSE"/>
            </ItemRef>
            <ItemRef ItemOID="IT.EG.EGORRES.EG.EGTESTCD.EQ.QRSAG" OrderNumber="4" Mandatory="No">
               <def:WhereClauseRef WhereClauseOID="WC.EG.EGTESTCD.EQ.QRSAG"/>
            </ItemRef>
            <ItemRef ItemOID="IT.EG.EGORRES.EG.EGTESTCD.EQ.QTAG" OrderNumber="5" Mandatory="No">
               <def:WhereClauseRef WhereClauseOID="WC.EG.EGTESTCD.EQ.QTAG"/>
            </ItemRef>
            <ItemRef ItemOID="IT.EG.EGORRES.EG.EGTESTCD.EQ.QTCLAG" OrderNumber="6" Mandatory="No">
               <def:WhereClauseRef WhereClauseOID="WC.EG.EGTESTCD.EQ.QTCLAG"/>
            </ItemRef>
            <ItemRef ItemOID="IT.EG.EGORRES.EG.EGTESTCD.EQ.RRAG" OrderNumber="7" Mandatory="No">
               <def:WhereClauseRef WhereClauseOID="WC.EG.EGTESTCD.EQ.RRAG"/>
            </ItemRef>
         </def:ValueListDef>
         <def:ValueListDef OID="VL.LB.LBORRES">
            <ItemRef ItemOID="IT.LB.LBORRES.LB.LBTESTCD.EQ.AB" OrderNumber="1" Mandatory="No">
               <def:WhereClauseRef WhereClauseOID="WC.LB.LBTESTCD.EQ.AB"/>
            </ItemRef>
            <ItemRef ItemOID="IT.LB.LBORRES.LB.LBTESTCD.EQ.ACTH" OrderNumber="2" Mandatory="No">
               <def:WhereClauseRef WhereClauseOID="WC.LB.LBTESTCD.EQ.ACTH"/>
            </ItemRef>
            <ItemRef ItemOID="IT.LB.LBORRES.LB.LBTESTCD.EQ.AFP" OrderNumber="3" Mandatory="No">
               <def:WhereClauseRef WhereClauseOID="WC.LB.LBTESTCD.EQ.AFP"/>
            </ItemRef>
            <ItemRef ItemOID="IT.LB.LBORRES.LB.LBTESTCD.EQ.ALB" OrderNumber="4" Mandatory="No">
               <def:WhereClauseRef WhereClauseOID="WC.LB.LBTESTCD.EQ.ALB"/>
            </ItemRef>
            <ItemRef ItemOID="IT.LB.LBORRES.LB.LBTESTCD.EQ.ALP" OrderNumber="5" Mandatory="No">
               <def:WhereClauseRef WhereClauseOID="WC.LB.LBTESTCD.EQ.ALP"/>
            </ItemRef>
            <ItemRef ItemOID="IT.LB.LBORRES.LB.LBTESTCD.EQ.ALT" OrderNumber="6" Mandatory="No">
               <def:WhereClauseRef WhereClauseOID="WC.LB.LBTESTCD.EQ.ALT"/>
            </ItemRef>
            <ItemRef ItemOID="IT.LB.LBORRES.LB.LBTESTCD.EQ.APT" OrderNumber="7" Mandatory="No">
               <def:WhereClauseRef WhereClauseOID="WC.LB.LBTESTCD.EQ.APT"/>
            </ItemRef>
            <ItemRef ItemOID="IT.LB.LBORRES.LB.LBTESTCD.EQ.APTT" OrderNumber="8" Mandatory="No">
               <def:WhereClauseRef WhereClauseOID="WC.LB.LBTESTCD.EQ.APTT"/>
            </ItemRef>
            <ItemRef ItemOID="IT.LB.LBORRES.LB.LBTESTCD.EQ.AST" OrderNumber="9" Mandatory="No">
               <def:WhereClauseRef WhereClauseOID="WC.LB.LBTESTCD.EQ.AST"/>
            </ItemRef>
            <ItemRef ItemOID="IT.LB.LBORRES.LB.LBTESTCD.EQ.B" OrderNumber="10" Mandatory="No">
               <def:WhereClauseRef WhereClauseOID="WC.LB.LBTESTCD.EQ.B"/>
            </ItemRef>
            <ItemRef ItemOID="IT.LB.LBORRES.LB.LBTESTCD.EQ.BASO" OrderNumber="11" Mandatory="No">
               <def:WhereClauseRef WhereClauseOID="WC.LB.LBTESTCD.EQ.BASO"/>
            </ItemRef>
            <ItemRef ItemOID="IT.LB.LBORRES.LB.LBTESTCD.EQ.BHCG" OrderNumber="12" Mandatory="No">
               <def:WhereClauseRef WhereClauseOID="WC.LB.LBTESTCD.EQ.BHCG"/>
            </ItemRef>
            <ItemRef ItemOID="IT.LB.LBORRES.LB.LBTESTCD.EQ.BILI" OrderNumber="13" Mandatory="No">
               <def:WhereClauseRef WhereClauseOID="WC.LB.LBTESTCD.EQ.BILI"/>
            </ItemRef>
            <ItemRef ItemOID="IT.LB.LBORRES.LB.LBTESTCD.EQ.BILIND" OrderNumber="14" Mandatory="No">
               <def:WhereClauseRef WhereClauseOID="WC.LB.LBTESTCD.EQ.BILIND"/>
            </ItemRef>
            <ItemRef ItemOID="IT.LB.LBORRES.LB.LBTESTCD.EQ.CA" OrderNumber="15" Mandatory="No">
               <def:WhereClauseRef WhereClauseOID="WC.LB.LBTESTCD.EQ.CA"/>
            </ItemRef>
            <ItemRef ItemOID="IT.LB.LBORRES.LB.LBTESTCD.EQ.CA15_3AG" OrderNumber="16" Mandatory="No">
               <def:WhereClauseRef WhereClauseOID="WC.LB.LBTESTCD.EQ.CA15_3AG"/>
            </ItemRef>
            <ItemRef ItemOID="IT.LB.LBORRES.LB.LBTESTCD.EQ.CA19_9AG" OrderNumber="17" Mandatory="No">
               <def:WhereClauseRef WhereClauseOID="WC.LB.LBTESTCD.EQ.CA19_9AG"/>
            </ItemRef>
            <ItemRef ItemOID="IT.LB.LBORRES.LB.LBTESTCD.EQ.CA72_4AG" OrderNumber="18" Mandatory="No">
               <def:WhereClauseRef WhereClauseOID="WC.LB.LBTESTCD.EQ.CA72_4AG"/>
            </ItemRef>
            <ItemRef ItemOID="IT.LB.LBORRES.LB.LBTESTCD.EQ.CA125AG" OrderNumber="19" Mandatory="No">
               <def:WhereClauseRef WhereClauseOID="WC.LB.LBTESTCD.EQ.CA125AG"/>
            </ItemRef>
            <ItemRef ItemOID="IT.LB.LBORRES.LB.LBTESTCD.EQ.CA242AG" OrderNumber="20" Mandatory="No">
               <def:WhereClauseRef WhereClauseOID="WC.LB.LBTESTCD.EQ.CA242AG"/>
            </ItemRef>
            <ItemRef ItemOID="IT.LB.LBORRES.LB.LBTESTCD.EQ.CD4" OrderNumber="21" Mandatory="No">
               <def:WhereClauseRef WhereClauseOID="WC.LB.LBTESTCD.EQ.CD4"/>
            </ItemRef>
            <ItemRef ItemOID="IT.LB.LBORRES.LB.LBTESTCD.EQ.CD8" OrderNumber="22" Mandatory="No">
               <def:WhereClauseRef WhereClauseOID="WC.LB.LBTESTCD.EQ.CD8"/>
            </ItemRef>
            <ItemRef ItemOID="IT.LB.LBORRES.LB.LBTESTCD.EQ.CDRA" OrderNumber="23" Mandatory="No">
               <def:WhereClauseRef WhereClauseOID="WC.LB.LBTESTCD.EQ.CDRA"/>
            </ItemRef>
            <ItemRef ItemOID="IT.LB.LBORRES.LB.LBTESTCD.EQ.CEA" OrderNumber="24" Mandatory="No">
               <def:WhereClauseRef WhereClauseOID="WC.LB.LBTESTCD.EQ.CEA"/>
            </ItemRef>
            <ItemRef ItemOID="IT.LB.LBORRES.LB.LBTESTCD.EQ.CH" OrderNumber="25" Mandatory="No">
               <def:WhereClauseRef WhereClauseOID="WC.LB.LBTESTCD.EQ.CH"/>
            </ItemRef>
            <ItemRef ItemOID="IT.LB.LBORRES.LB.LBTESTCD.EQ.CHGB" OrderNumber="26" Mandatory="No">
               <def:WhereClauseRef WhereClauseOID="WC.LB.LBTESTCD.EQ.CHGB"/>
            </ItemRef>
            <ItemRef ItemOID="IT.LB.LBORRES.LB.LBTESTCD.EQ.CK" OrderNumber="27" Mandatory="No">
               <def:WhereClauseRef WhereClauseOID="WC.LB.LBTESTCD.EQ.CK"/>
            </ItemRef>
            <ItemRef ItemOID="IT.LB.LBORRES.LB.LBTESTCD.EQ.CKMB" OrderNumber="28" Mandatory="No">
               <def:WhereClauseRef WhereClauseOID="WC.LB.LBTESTCD.EQ.CKMB"/>
            </ItemRef>
            <ItemRef ItemOID="IT.LB.LBORRES.LB.LBTESTCD.EQ.CL" OrderNumber="29" Mandatory="No">
               <def:WhereClauseRef WhereClauseOID="WC.LB.LBTESTCD.EQ.CL"/>
            </ItemRef>
            <ItemRef ItemOID="IT.LB.LBORRES.LB.LBTESTCD.EQ.CODOUL" OrderNumber="30" Mandatory="No">
               <def:WhereClauseRef WhereClauseOID="WC.LB.LBTESTCD.EQ.CODOUL"/>
            </ItemRef>
            <ItemRef ItemOID="IT.LB.LBORRES.LB.LBTESTCD.EQ.CORTISOL" OrderNumber="31" Mandatory="No">
               <def:WhereClauseRef WhereClauseOID="WC.LB.LBTESTCD.EQ.CORTISOL"/>
            </ItemRef>
            <ItemRef ItemOID="IT.LB.LBORRES.LB.LBTESTCD.EQ.CREAT" OrderNumber="32" Mandatory="No">
               <def:WhereClauseRef WhereClauseOID="WC.LB.LBTESTCD.EQ.CREAT"/>
            </ItemRef>
            <ItemRef ItemOID="IT.LB.LBORRES.LB.LBTESTCD.EQ.CYFRA211" OrderNumber="33" Mandatory="No">
               <def:WhereClauseRef WhereClauseOID="WC.LB.LBTESTCD.EQ.CYFRA211"/>
            </ItemRef>
            <ItemRef ItemOID="IT.LB.LBORRES.LB.LBTESTCD.EQ.DDIMER" OrderNumber="34" Mandatory="No">
               <def:WhereClauseRef WhereClauseOID="WC.LB.LBTESTCD.EQ.DDIMER"/>
            </ItemRef>
            <ItemRef ItemOID="IT.LB.LBORRES.LB.LBTESTCD.EQ.EOS" OrderNumber="35" Mandatory="No">
               <def:WhereClauseRef WhereClauseOID="WC.LB.LBTESTCD.EQ.EOS"/>
            </ItemRef>
            <ItemRef ItemOID="IT.LB.LBORRES.LB.LBTESTCD.EQ.ESTR" OrderNumber="36" Mandatory="No">
               <def:WhereClauseRef WhereClauseOID="WC.LB.LBTESTCD.EQ.ESTR"/>
            </ItemRef>
            <ItemRef ItemOID="IT.LB.LBORRES.LB.LBTESTCD.EQ.FERRITIN" OrderNumber="37" Mandatory="No">
               <def:WhereClauseRef WhereClauseOID="WC.LB.LBTESTCD.EQ.FERRITIN"/>
            </ItemRef>
            <ItemRef ItemOID="IT.LB.LBORRES.LB.LBTESTCD.EQ.FOB" OrderNumber="38" Mandatory="No">
               <def:WhereClauseRef WhereClauseOID="WC.LB.LBTESTCD.EQ.FOB"/>
            </ItemRef>
            <ItemRef ItemOID="IT.LB.LBORRES.LB.LBTESTCD.EQ.FOSH" OrderNumber="39" Mandatory="No">
               <def:WhereClauseRef WhereClauseOID="WC.LB.LBTESTCD.EQ.FOSH"/>
            </ItemRef>
            <ItemRef ItemOID="IT.LB.LBORRES.LB.LBTESTCD.EQ.FRBC" OrderNumber="40" Mandatory="No">
               <def:WhereClauseRef WhereClauseOID="WC.LB.LBTESTCD.EQ.FRBC"/>
            </ItemRef>
            <ItemRef ItemOID="IT.LB.LBORRES.LB.LBTESTCD.EQ.FT3" OrderNumber="41" Mandatory="No">
               <def:WhereClauseRef WhereClauseOID="WC.LB.LBTESTCD.EQ.FT3"/>
            </ItemRef>
            <ItemRef ItemOID="IT.LB.LBORRES.LB.LBTESTCD.EQ.FT4" OrderNumber="42" Mandatory="No">
               <def:WhereClauseRef WhereClauseOID="WC.LB.LBTESTCD.EQ.FT4"/>
            </ItemRef>
            <ItemRef ItemOID="IT.LB.LBORRES.LB.LBTESTCD.EQ.FWBC" OrderNumber="43" Mandatory="No">
               <def:WhereClauseRef WhereClauseOID="WC.LB.LBTESTCD.EQ.FWBC"/>
            </ItemRef>
            <ItemRef ItemOID="IT.LB.LBORRES.LB.LBTESTCD.EQ.GGT" OrderNumber="44" Mandatory="No">
               <def:WhereClauseRef WhereClauseOID="WC.LB.LBTESTCD.EQ.GGT"/>
            </ItemRef>
            <ItemRef ItemOID="IT.LB.LBORRES.LB.LBTESTCD.EQ.GLUC" OrderNumber="45" Mandatory="No">
               <def:WhereClauseRef WhereClauseOID="WC.LB.LBTESTCD.EQ.GLUC"/>
            </ItemRef>
            <ItemRef ItemOID="IT.LB.LBORRES.LB.LBTESTCD.EQ.HBCAB" OrderNumber="46" Mandatory="No">
               <def:WhereClauseRef WhereClauseOID="WC.LB.LBTESTCD.EQ.HBCAB"/>
            </ItemRef>
            <ItemRef ItemOID="IT.LB.LBORRES.LB.LBTESTCD.EQ.HBSAG" OrderNumber="47" Mandatory="No">
               <def:WhereClauseRef WhereClauseOID="WC.LB.LBTESTCD.EQ.HBSAG"/>
            </ItemRef>
            <ItemRef ItemOID="IT.LB.LBORRES.LB.LBTESTCD.EQ.HBUN" OrderNumber="48" Mandatory="No">
               <def:WhereClauseRef WhereClauseOID="WC.LB.LBTESTCD.EQ.HBUN"/>
            </ItemRef>
            <ItemRef ItemOID="IT.LB.LBORRES.LB.LBTESTCD.EQ.HCG" OrderNumber="49" Mandatory="No">
               <def:WhereClauseRef WhereClauseOID="WC.LB.LBTESTCD.EQ.HCG"/>
            </ItemRef>
            <ItemRef ItemOID="IT.LB.LBORRES.LB.LBTESTCD.EQ.HCKMB" OrderNumber="50" Mandatory="No">
               <def:WhereClauseRef WhereClauseOID="WC.LB.LBTESTCD.EQ.HCKMB"/>
            </ItemRef>
            <ItemRef ItemOID="IT.LB.LBORRES.LB.LBTESTCD.EQ.HCVAB" OrderNumber="51" Mandatory="No">
               <def:WhereClauseRef WhereClauseOID="WC.LB.LBTESTCD.EQ.HCVAB"/>
            </ItemRef>
            <ItemRef ItemOID="IT.LB.LBORRES.LB.LBTESTCD.EQ.HDLC" OrderNumber="52" Mandatory="No">
               <def:WhereClauseRef WhereClauseOID="WC.LB.LBTESTCD.EQ.HDLC"/>
            </ItemRef>
            <ItemRef ItemOID="IT.LB.LBORRES.LB.LBTESTCD.EQ.HGB" OrderNumber="53" Mandatory="No">
               <def:WhereClauseRef WhereClauseOID="WC.LB.LBTESTCD.EQ.HGB"/>
            </ItemRef>
            <ItemRef ItemOID="IT.LB.LBORRES.LB.LBTESTCD.EQ.HIV" OrderNumber="54" Mandatory="No">
               <def:WhereClauseRef WhereClauseOID="WC.LB.LBTESTCD.EQ.HIV"/>
            </ItemRef>
            <ItemRef ItemOID="IT.LB.LBORRES.LB.LBTESTCD.EQ.HUREA" OrderNumber="55" Mandatory="No">
               <def:WhereClauseRef WhereClauseOID="WC.LB.LBTESTCD.EQ.HUREA"/>
            </ItemRef>
            <ItemRef ItemOID="IT.LB.LBORRES.LB.LBTESTCD.EQ.IFNA" OrderNumber="56" Mandatory="No">
               <def:WhereClauseRef WhereClauseOID="WC.LB.LBTESTCD.EQ.IFNA"/>
            </ItemRef>
            <ItemRef ItemOID="IT.LB.LBORRES.LB.LBTESTCD.EQ.IFNG" OrderNumber="57" Mandatory="No">
               <def:WhereClauseRef WhereClauseOID="WC.LB.LBTESTCD.EQ.IFNG"/>
            </ItemRef>
            <ItemRef ItemOID="IT.LB.LBORRES.LB.LBTESTCD.EQ.INR" OrderNumber="58" Mandatory="No">
               <def:WhereClauseRef WhereClauseOID="WC.LB.LBTESTCD.EQ.INR"/>
            </ItemRef>
            <ItemRef ItemOID="IT.LB.LBORRES.LB.LBTESTCD.EQ.INTLK1B" OrderNumber="59" Mandatory="No">
               <def:WhereClauseRef WhereClauseOID="WC.LB.LBTESTCD.EQ.INTLK1B"/>
            </ItemRef>
            <ItemRef ItemOID="IT.LB.LBORRES.LB.LBTESTCD.EQ.INTLK2" OrderNumber="60" Mandatory="No">
               <def:WhereClauseRef WhereClauseOID="WC.LB.LBTESTCD.EQ.INTLK2"/>
            </ItemRef>
            <ItemRef ItemOID="IT.LB.LBORRES.LB.LBTESTCD.EQ.INTLK4" OrderNumber="61" Mandatory="No">
               <def:WhereClauseRef WhereClauseOID="WC.LB.LBTESTCD.EQ.INTLK4"/>
            </ItemRef>
            <ItemRef ItemOID="IT.LB.LBORRES.LB.LBTESTCD.EQ.INTLK5" OrderNumber="62" Mandatory="No">
               <def:WhereClauseRef WhereClauseOID="WC.LB.LBTESTCD.EQ.INTLK5"/>
            </ItemRef>
            <ItemRef ItemOID="IT.LB.LBORRES.LB.LBTESTCD.EQ.INTLK6" OrderNumber="63" Mandatory="No">
               <def:WhereClauseRef WhereClauseOID="WC.LB.LBTESTCD.EQ.INTLK6"/>
            </ItemRef>
            <ItemRef ItemOID="IT.LB.LBORRES.LB.LBTESTCD.EQ.INTLK8" OrderNumber="64" Mandatory="No">
               <def:WhereClauseRef WhereClauseOID="WC.LB.LBTESTCD.EQ.INTLK8"/>
            </ItemRef>
            <ItemRef ItemOID="IT.LB.LBORRES.LB.LBTESTCD.EQ.INTLK10" OrderNumber="65" Mandatory="No">
               <def:WhereClauseRef WhereClauseOID="WC.LB.LBTESTCD.EQ.INTLK10"/>
            </ItemRef>
            <ItemRef ItemOID="IT.LB.LBORRES.LB.LBTESTCD.EQ.INTLK12" OrderNumber="66" Mandatory="No">
               <def:WhereClauseRef WhereClauseOID="WC.LB.LBTESTCD.EQ.INTLK12"/>
            </ItemRef>
            <ItemRef ItemOID="IT.LB.LBORRES.LB.LBTESTCD.EQ.INTLK17" OrderNumber="67" Mandatory="No">
               <def:WhereClauseRef WhereClauseOID="WC.LB.LBTESTCD.EQ.INTLK17"/>
            </ItemRef>
            <ItemRef ItemOID="IT.LB.LBORRES.LB.LBTESTCD.EQ.K" OrderNumber="68" Mandatory="No">
               <def:WhereClauseRef WhereClauseOID="WC.LB.LBTESTCD.EQ.K"/>
            </ItemRef>
            <ItemRef ItemOID="IT.LB.LBORRES.LB.LBTESTCD.EQ.LDH" OrderNumber="69" Mandatory="No">
               <def:WhereClauseRef WhereClauseOID="WC.LB.LBTESTCD.EQ.LDH"/>
            </ItemRef>
            <ItemRef ItemOID="IT.LB.LBORRES.LB.LBTESTCD.EQ.LDL" OrderNumber="70" Mandatory="No">
               <def:WhereClauseRef WhereClauseOID="WC.LB.LBTESTCD.EQ.LDL"/>
            </ItemRef>
            <ItemRef ItemOID="IT.LB.LBORRES.LB.LBTESTCD.EQ.LDLC" OrderNumber="71" Mandatory="No">
               <def:WhereClauseRef WhereClauseOID="WC.LB.LBTESTCD.EQ.LDLC"/>
            </ItemRef>
            <ItemRef ItemOID="IT.LB.LBORRES.LB.LBTESTCD.EQ.LIPASET" OrderNumber="72" Mandatory="No">
               <def:WhereClauseRef WhereClauseOID="WC.LB.LBTESTCD.EQ.LIPASET"/>
            </ItemRef>
            <ItemRef ItemOID="IT.LB.LBORRES.LB.LBTESTCD.EQ.LUHO" OrderNumber="73" Mandatory="No">
               <def:WhereClauseRef WhereClauseOID="WC.LB.LBTESTCD.EQ.LUHO"/>
            </ItemRef>
            <ItemRef ItemOID="IT.LB.LBORRES.LB.LBTESTCD.EQ.LYM" OrderNumber="74" Mandatory="No">
               <def:WhereClauseRef WhereClauseOID="WC.LB.LBTESTCD.EQ.LYM"/>
            </ItemRef>
            <ItemRef ItemOID="IT.LB.LBORRES.LB.LBTESTCD.EQ.LYMCE" OrderNumber="75" Mandatory="No">
               <def:WhereClauseRef WhereClauseOID="WC.LB.LBTESTCD.EQ.LYMCE"/>
            </ItemRef>
            <ItemRef ItemOID="IT.LB.LBORRES.LB.LBTESTCD.EQ.MB" OrderNumber="76" Mandatory="No">
               <def:WhereClauseRef WhereClauseOID="WC.LB.LBTESTCD.EQ.MB"/>
            </ItemRef>
            <ItemRef ItemOID="IT.LB.LBORRES.LB.LBTESTCD.EQ.MCV" OrderNumber="77" Mandatory="No">
               <def:WhereClauseRef WhereClauseOID="WC.LB.LBTESTCD.EQ.MCV"/>
            </ItemRef>
            <ItemRef ItemOID="IT.LB.LBORRES.LB.LBTESTCD.EQ.MG" OrderNumber="78" Mandatory="No">
               <def:WhereClauseRef WhereClauseOID="WC.LB.LBTESTCD.EQ.MG"/>
            </ItemRef>
            <ItemRef ItemOID="IT.LB.LBORRES.LB.LBTESTCD.EQ.MONOCE" OrderNumber="79" Mandatory="No">
               <def:WhereClauseRef WhereClauseOID="WC.LB.LBTESTCD.EQ.MONOCE"/>
            </ItemRef>
            <ItemRef ItemOID="IT.LB.LBORRES.LB.LBTESTCD.EQ.NA" OrderNumber="80" Mandatory="No">
               <def:WhereClauseRef WhereClauseOID="WC.LB.LBTESTCD.EQ.NA"/>
            </ItemRef>
            <ItemRef ItemOID="IT.LB.LBORRES.LB.LBTESTCD.EQ.NEUT" OrderNumber="81" Mandatory="No">
               <def:WhereClauseRef WhereClauseOID="WC.LB.LBTESTCD.EQ.NEUT"/>
            </ItemRef>
            <ItemRef ItemOID="IT.LB.LBORRES.LB.LBTESTCD.EQ.NEUTCE" OrderNumber="82" Mandatory="No">
               <def:WhereClauseRef WhereClauseOID="WC.LB.LBTESTCD.EQ.NEUTCE"/>
            </ItemRef>
            <ItemRef ItemOID="IT.LB.LBORRES.LB.LBTESTCD.EQ.NK" OrderNumber="83" Mandatory="No">
               <def:WhereClauseRef WhereClauseOID="WC.LB.LBTESTCD.EQ.NK"/>
            </ItemRef>
            <ItemRef ItemOID="IT.LB.LBORRES.LB.LBTESTCD.EQ.NONHDL" OrderNumber="84" Mandatory="No">
               <def:WhereClauseRef WhereClauseOID="WC.LB.LBTESTCD.EQ.NONHDL"/>
            </ItemRef>
            <ItemRef ItemOID="IT.LB.LBORRES.LB.LBTESTCD.EQ.OALB" OrderNumber="85" Mandatory="No">
               <def:WhereClauseRef WhereClauseOID="WC.LB.LBTESTCD.EQ.OALB"/>
            </ItemRef>
            <ItemRef ItemOID="IT.LB.LBORRES.LB.LBTESTCD.EQ.OB" OrderNumber="86" Mandatory="No">
               <def:WhereClauseRef WhereClauseOID="WC.LB.LBTESTCD.EQ.OB"/>
            </ItemRef>
            <ItemRef ItemOID="IT.LB.LBORRES.LB.LBTESTCD.EQ.OB1" OrderNumber="87" Mandatory="No">
               <def:WhereClauseRef WhereClauseOID="WC.LB.LBTESTCD.EQ.OB1"/>
            </ItemRef>
            <ItemRef ItemOID="IT.LB.LBORRES.LB.LBTESTCD.EQ.OB2" OrderNumber="88" Mandatory="No">
               <def:WhereClauseRef WhereClauseOID="WC.LB.LBTESTCD.EQ.OB2"/>
            </ItemRef>
            <ItemRef ItemOID="IT.LB.LBORRES.LB.LBTESTCD.EQ.OBILDIR" OrderNumber="89" Mandatory="No">
               <def:WhereClauseRef WhereClauseOID="WC.LB.LBTESTCD.EQ.OBILDIR"/>
            </ItemRef>
            <ItemRef ItemOID="IT.LB.LBORRES.LB.LBTESTCD.EQ.OBILI" OrderNumber="90" Mandatory="No">
               <def:WhereClauseRef WhereClauseOID="WC.LB.LBTESTCD.EQ.OBILI"/>
            </ItemRef>
            <ItemRef ItemOID="IT.LB.LBORRES.LB.LBTESTCD.EQ.OBILIND" OrderNumber="91" Mandatory="No">
               <def:WhereClauseRef WhereClauseOID="WC.LB.LBTESTCD.EQ.OBILIND"/>
            </ItemRef>
            <ItemRef ItemOID="IT.LB.LBORRES.LB.LBTESTCD.EQ.OCL" OrderNumber="92" Mandatory="No">
               <def:WhereClauseRef WhereClauseOID="WC.LB.LBTESTCD.EQ.OCL"/>
            </ItemRef>
            <ItemRef ItemOID="IT.LB.LBORRES.LB.LBTESTCD.EQ.OHBSAG1" OrderNumber="93" Mandatory="No">
               <def:WhereClauseRef WhereClauseOID="WC.LB.LBTESTCD.EQ.OHBSAG1"/>
            </ItemRef>
            <ItemRef ItemOID="IT.LB.LBORRES.LB.LBTESTCD.EQ.OHBSAG2" OrderNumber="94" Mandatory="No">
               <def:WhereClauseRef WhereClauseOID="WC.LB.LBTESTCD.EQ.OHBSAG2"/>
            </ItemRef>
            <ItemRef ItemOID="IT.LB.LBORRES.LB.LBTESTCD.EQ.OHGB" OrderNumber="95" Mandatory="No">
               <def:WhereClauseRef WhereClauseOID="WC.LB.LBTESTCD.EQ.OHGB"/>
            </ItemRef>
            <ItemRef ItemOID="IT.LB.LBORRES.LB.LBTESTCD.EQ.ONA" OrderNumber="96" Mandatory="No">
               <def:WhereClauseRef WhereClauseOID="WC.LB.LBTESTCD.EQ.ONA"/>
            </ItemRef>
            <ItemRef ItemOID="IT.LB.LBORRES.LB.LBTESTCD.EQ.ONONHDL" OrderNumber="97" Mandatory="No">
               <def:WhereClauseRef WhereClauseOID="WC.LB.LBTESTCD.EQ.ONONHDL"/>
            </ItemRef>
            <ItemRef ItemOID="IT.LB.LBORRES.LB.LBTESTCD.EQ.ORBC" OrderNumber="98" Mandatory="No">
               <def:WhereClauseRef WhereClauseOID="WC.LB.LBTESTCD.EQ.ORBC"/>
            </ItemRef>
            <ItemRef ItemOID="IT.LB.LBORRES.LB.LBTESTCD.EQ.OTH" OrderNumber="99" Mandatory="No">
               <def:WhereClauseRef WhereClauseOID="WC.LB.LBTESTCD.EQ.OTH"/>
            </ItemRef>
            <ItemRef ItemOID="IT.LB.LBORRES.LB.LBTESTCD.EQ.OVLDL" OrderNumber="100" Mandatory="No">
               <def:WhereClauseRef WhereClauseOID="WC.LB.LBTESTCD.EQ.OVLDL"/>
            </ItemRef>
            <ItemRef ItemOID="IT.LB.LBORRES.LB.LBTESTCD.EQ.P" OrderNumber="101" Mandatory="No">
               <def:WhereClauseRef WhereClauseOID="WC.LB.LBTESTCD.EQ.P"/>
            </ItemRef>
            <ItemRef ItemOID="IT.LB.LBORRES.LB.LBTESTCD.EQ.PE" OrderNumber="102" Mandatory="No">
               <def:WhereClauseRef WhereClauseOID="WC.LB.LBTESTCD.EQ.PE"/>
            </ItemRef>
            <ItemRef ItemOID="IT.LB.LBORRES.LB.LBTESTCD.EQ.PH" OrderNumber="103" Mandatory="No">
               <def:WhereClauseRef WhereClauseOID="WC.LB.LBTESTCD.EQ.PH"/>
            </ItemRef>
            <ItemRef ItemOID="IT.LB.LBORRES.LB.LBTESTCD.EQ.PIPR" OrderNumber="104" Mandatory="No">
               <def:WhereClauseRef WhereClauseOID="WC.LB.LBTESTCD.EQ.PIPR"/>
            </ItemRef>
            <ItemRef ItemOID="IT.LB.LBORRES.LB.LBTESTCD.EQ.PLT" OrderNumber="105" Mandatory="No">
               <def:WhereClauseRef WhereClauseOID="WC.LB.LBTESTCD.EQ.PLT"/>
            </ItemRef>
            <ItemRef ItemOID="IT.LB.LBORRES.LB.LBTESTCD.EQ.PROG" OrderNumber="106" Mandatory="No">
               <def:WhereClauseRef WhereClauseOID="WC.LB.LBTESTCD.EQ.PROG"/>
            </ItemRef>
            <ItemRef ItemOID="IT.LB.LBORRES.LB.LBTESTCD.EQ.PROT" OrderNumber="107" Mandatory="No">
               <def:WhereClauseRef WhereClauseOID="WC.LB.LBTESTCD.EQ.PROT"/>
            </ItemRef>
            <ItemRef ItemOID="IT.LB.LBORRES.LB.LBTESTCD.EQ.PT" OrderNumber="108" Mandatory="No">
               <def:WhereClauseRef WhereClauseOID="WC.LB.LBTESTCD.EQ.PT"/>
            </ItemRef>
            <ItemRef ItemOID="IT.LB.LBORRES.LB.LBTESTCD.EQ.RBC" OrderNumber="109" Mandatory="No">
               <def:WhereClauseRef WhereClauseOID="WC.LB.LBTESTCD.EQ.RBC"/>
            </ItemRef>
            <ItemRef ItemOID="IT.LB.LBORRES.LB.LBTESTCD.EQ.RT3" OrderNumber="110" Mandatory="No">
               <def:WhereClauseRef WhereClauseOID="WC.LB.LBTESTCD.EQ.RT3"/>
            </ItemRef>
            <ItemRef ItemOID="IT.LB.LBORRES.LB.LBTESTCD.EQ.T3FR" OrderNumber="111" Mandatory="No">
               <def:WhereClauseRef WhereClauseOID="WC.LB.LBTESTCD.EQ.T3FR"/>
            </ItemRef>
            <ItemRef ItemOID="IT.LB.LBORRES.LB.LBTESTCD.EQ.TCHO" OrderNumber="112" Mandatory="No">
               <def:WhereClauseRef WhereClauseOID="WC.LB.LBTESTCD.EQ.TCHO"/>
            </ItemRef>
            <ItemRef ItemOID="IT.LB.LBORRES.LB.LBTESTCD.EQ.TCO2" OrderNumber="113" Mandatory="No">
               <def:WhereClauseRef WhereClauseOID="WC.LB.LBTESTCD.EQ.TCO2"/>
            </ItemRef>
            <ItemRef ItemOID="IT.LB.LBORRES.LB.LBTESTCD.EQ.TI" OrderNumber="114" Mandatory="No">
               <def:WhereClauseRef WhereClauseOID="WC.LB.LBTESTCD.EQ.TI"/>
            </ItemRef>
            <ItemRef ItemOID="IT.LB.LBORRES.LB.LBTESTCD.EQ.TNFA" OrderNumber="115" Mandatory="No">
               <def:WhereClauseRef WhereClauseOID="WC.LB.LBTESTCD.EQ.TNFA"/>
            </ItemRef>
            <ItemRef ItemOID="IT.LB.LBORRES.LB.LBTESTCD.EQ.TOST" OrderNumber="116" Mandatory="No">
               <def:WhereClauseRef WhereClauseOID="WC.LB.LBTESTCD.EQ.TOST"/>
            </ItemRef>
            <ItemRef ItemOID="IT.LB.LBORRES.LB.LBTESTCD.EQ.TP" OrderNumber="117" Mandatory="No">
               <def:WhereClauseRef WhereClauseOID="WC.LB.LBTESTCD.EQ.TP"/>
            </ItemRef>
            <ItemRef ItemOID="IT.LB.LBORRES.LB.LBTESTCD.EQ.TRIG" OrderNumber="118" Mandatory="No">
               <def:WhereClauseRef WhereClauseOID="WC.LB.LBTESTCD.EQ.TRIG"/>
            </ItemRef>
            <ItemRef ItemOID="IT.LB.LBORRES.LB.LBTESTCD.EQ.TSH" OrderNumber="119" Mandatory="No">
               <def:WhereClauseRef WhereClauseOID="WC.LB.LBTESTCD.EQ.TSH"/>
            </ItemRef>
            <ItemRef ItemOID="IT.LB.LBORRES.LB.LBTESTCD.EQ.UA" OrderNumber="120" Mandatory="No">
               <def:WhereClauseRef WhereClauseOID="WC.LB.LBTESTCD.EQ.UA"/>
            </ItemRef>
            <ItemRef ItemOID="IT.LB.LBORRES.LB.LBTESTCD.EQ.UBILI" OrderNumber="121" Mandatory="No">
               <def:WhereClauseRef WhereClauseOID="WC.LB.LBTESTCD.EQ.UBILI"/>
            </ItemRef>
            <ItemRef ItemOID="IT.LB.LBORRES.LB.LBTESTCD.EQ.UCRYSTA" OrderNumber="122" Mandatory="No">
               <def:WhereClauseRef WhereClauseOID="WC.LB.LBTESTCD.EQ.UCRYSTA"/>
            </ItemRef>
            <ItemRef ItemOID="IT.LB.LBORRES.LB.LBTESTCD.EQ.UERCE" OrderNumber="123" Mandatory="No">
               <def:WhereClauseRef WhereClauseOID="WC.LB.LBTESTCD.EQ.UERCE"/>
            </ItemRef>
            <ItemRef ItemOID="IT.LB.LBORRES.LB.LBTESTCD.EQ.UGLUC" OrderNumber="124" Mandatory="No">
               <def:WhereClauseRef WhereClauseOID="WC.LB.LBTESTCD.EQ.UGLUC"/>
            </ItemRef>
            <ItemRef ItemOID="IT.LB.LBORRES.LB.LBTESTCD.EQ.UKET" OrderNumber="125" Mandatory="No">
               <def:WhereClauseRef WhereClauseOID="WC.LB.LBTESTCD.EQ.UKET"/>
            </ItemRef>
            <ItemRef ItemOID="IT.LB.LBORRES.LB.LBTESTCD.EQ.ULEU" OrderNumber="126" Mandatory="No">
               <def:WhereClauseRef WhereClauseOID="WC.LB.LBTESTCD.EQ.ULEU"/>
            </ItemRef>
            <ItemRef ItemOID="IT.LB.LBORRES.LB.LBTESTCD.EQ.UOCCBLD" OrderNumber="127" Mandatory="No">
               <def:WhereClauseRef WhereClauseOID="WC.LB.LBTESTCD.EQ.UOCCBLD"/>
            </ItemRef>
            <ItemRef ItemOID="IT.LB.LBORRES.LB.LBTESTCD.EQ.UPROT" OrderNumber="128" Mandatory="No">
               <def:WhereClauseRef WhereClauseOID="WC.LB.LBTESTCD.EQ.UPROT"/>
            </ItemRef>
            <ItemRef ItemOID="IT.LB.LBORRES.LB.LBTESTCD.EQ.UROBIL" OrderNumber="129" Mandatory="No">
               <def:WhereClauseRef WhereClauseOID="WC.LB.LBTESTCD.EQ.UROBIL"/>
            </ItemRef>
            <ItemRef ItemOID="IT.LB.LBORRES.LB.LBTESTCD.EQ.VLDL" OrderNumber="130" Mandatory="No">
               <def:WhereClauseRef WhereClauseOID="WC.LB.LBTESTCD.EQ.VLDL"/>
            </ItemRef>
            <ItemRef ItemOID="IT.LB.LBORRES.LB.LBTESTCD.EQ.WBC" OrderNumber="131" Mandatory="No">
               <def:WhereClauseRef WhereClauseOID="WC.LB.LBTESTCD.EQ.WBC"/>
            </ItemRef>
         </def:ValueListDef>
         <def:ValueListDef OID="VL.PC.PCORRES">
            <ItemRef ItemOID="IT.PC.PCORRES.PC.PCTESTCD.EQ.CD4" OrderNumber="1" Mandatory="No">
               <def:WhereClauseRef WhereClauseOID="WC.PC.PCTESTCD.EQ.CD4"/>
            </ItemRef>
            <ItemRef ItemOID="IT.PC.PCORRES.PC.PCTESTCD.EQ.CD4/CD8" OrderNumber="2" Mandatory="No">
               <def:WhereClauseRef WhereClauseOID="WC.PC.PCTESTCD.EQ.CD4/CD8"/>
            </ItemRef>
            <ItemRef ItemOID="IT.PC.PCORRES.PC.PCTESTCD.EQ.CD8" OrderNumber="3" Mandatory="No">
               <def:WhereClauseRef WhereClauseOID="WC.PC.PCTESTCD.EQ.CD8"/>
            </ItemRef>
            <ItemRef ItemOID="IT.PC.PCORRES.PC.PCTESTCD.EQ.IL_6" OrderNumber="4" Mandatory="No">
               <def:WhereClauseRef WhereClauseOID="WC.PC.PCTESTCD.EQ.IL_6"/>
            </ItemRef>
            <ItemRef ItemOID="IT.PC.PCORRES.PC.PCTESTCD.EQ.MR001" OrderNumber="5" Mandatory="No">
               <def:WhereClauseRef WhereClauseOID="WC.PC.PCTESTCD.EQ.MR001"/>
            </ItemRef>
            <ItemRef ItemOID="IT.PC.PCORRES.PC.PCTESTCD.EQ.RECOCC" OrderNumber="6" Mandatory="No">
               <def:WhereClauseRef WhereClauseOID="WC.PC.PCTESTCD.EQ.RECOCC"/>
            </ItemRef>
            <ItemRef ItemOID="IT.PC.PCORRES.PC.PCTESTCD.EQ.TGF_B1" OrderNumber="7" Mandatory="No">
               <def:WhereClauseRef WhereClauseOID="WC.PC.PCTESTCD.EQ.TGF_B1"/>
            </ItemRef>
            <ItemRef ItemOID="IT.PC.PCORRES.PC.PCTESTCD.EQ.TH1" OrderNumber="8" Mandatory="No">
               <def:WhereClauseRef WhereClauseOID="WC.PC.PCTESTCD.EQ.TH1"/>
            </ItemRef>
            <ItemRef ItemOID="IT.PC.PCORRES.PC.PCTESTCD.EQ.TH2" OrderNumber="9" Mandatory="No">
               <def:WhereClauseRef WhereClauseOID="WC.PC.PCTESTCD.EQ.TH2"/>
            </ItemRef>
            <ItemRef ItemOID="IT.PC.PCORRES.PC.PCTESTCD.EQ.TH17" OrderNumber="10" Mandatory="No">
               <def:WhereClauseRef WhereClauseOID="WC.PC.PCTESTCD.EQ.TH17"/>
            </ItemRef>
            <ItemRef ItemOID="IT.PC.PCORRES.PC.PCTESTCD.EQ.TNF_A" OrderNumber="11" Mandatory="No">
               <def:WhereClauseRef WhereClauseOID="WC.PC.PCTESTCD.EQ.TNF_A"/>
            </ItemRef>
            <ItemRef ItemOID="IT.PC.PCORRES.PC.PCTESTCD.EQ.TREG" OrderNumber="12" Mandatory="No">
               <def:WhereClauseRef WhereClauseOID="WC.PC.PCTESTCD.EQ.TREG"/>
            </ItemRef>
         </def:ValueListDef>
         <def:ValueListDef OID="VL.PE.PEORRES">
            <ItemRef ItemOID="IT.PE.PEORRES.PE.PETESTCD.EQ.ABDO" OrderNumber="1" Mandatory="No">
               <def:WhereClauseRef WhereClauseOID="WC.PE.PETESTCD.EQ.ABDO"/>
            </ItemRef>
            <ItemRef ItemOID="IT.PE.PEORRES.PE.PETESTCD.EQ.HE" OrderNumber="2" Mandatory="No">
               <def:WhereClauseRef WhereClauseOID="WC.PE.PETESTCD.EQ.HE"/>
            </ItemRef>
            <ItemRef ItemOID="IT.PE.PEORRES.PE.PETESTCD.EQ.LN" OrderNumber="3" Mandatory="No">
               <def:WhereClauseRef WhereClauseOID="WC.PE.PETESTCD.EQ.LN"/>
            </ItemRef>
            <ItemRef ItemOID="IT.PE.PEORRES.PE.PETESTCD.EQ.MUSC" OrderNumber="4" Mandatory="No">
               <def:WhereClauseRef WhereClauseOID="WC.PE.PETESTCD.EQ.MUSC"/>
            </ItemRef>
            <ItemRef ItemOID="IT.PE.PEORRES.PE.PETESTCD.EQ.NE" OrderNumber="5" Mandatory="No">
               <def:WhereClauseRef WhereClauseOID="WC.PE.PETESTCD.EQ.NE"/>
            </ItemRef>
            <ItemRef ItemOID="IT.PE.PEORRES.PE.PETESTCD.EQ.NEPS" OrderNumber="6" Mandatory="No">
               <def:WhereClauseRef WhereClauseOID="WC.PE.PETESTCD.EQ.NEPS"/>
            </ItemRef>
            <ItemRef ItemOID="IT.PE.PEORRES.PE.PETESTCD.EQ.PEOTH" OrderNumber="7" Mandatory="No">
               <def:WhereClauseRef WhereClauseOID="WC.PE.PETESTCD.EQ.PEOTH"/>
            </ItemRef>
            <ItemRef ItemOID="IT.PE.PEORRES.PE.PETESTCD.EQ.SKIN" OrderNumber="8" Mandatory="No">
               <def:WhereClauseRef WhereClauseOID="WC.PE.PETESTCD.EQ.SKIN"/>
            </ItemRef>
            <ItemRef ItemOID="IT.PE.PEORRES.PE.PETESTCD.EQ.THOR" OrderNumber="9" Mandatory="No">
               <def:WhereClauseRef WhereClauseOID="WC.PE.PETESTCD.EQ.THOR"/>
            </ItemRef>
         </def:ValueListDef>
         <def:ValueListDef OID="VL.PP.PPORRES">
            <ItemRef ItemOID="IT.PP.PPORRES.PP.PPTESTCD.EQ.AUCIFO" OrderNumber="1" Mandatory="No">
               <def:WhereClauseRef WhereClauseOID="WC.PP.PPTESTCD.EQ.AUCIFO"/>
            </ItemRef>
            <ItemRef ItemOID="IT.PP.PPORRES.PP.PPTESTCD.EQ.AUCLST" OrderNumber="2" Mandatory="No">
               <def:WhereClauseRef WhereClauseOID="WC.PP.PPTESTCD.EQ.AUCLST"/>
            </ItemRef>
            <ItemRef ItemOID="IT.PP.PPORRES.PP.PPTESTCD.EQ.AUCPEO" OrderNumber="3" Mandatory="No">
               <def:WhereClauseRef WhereClauseOID="WC.PP.PPTESTCD.EQ.AUCPEO"/>
            </ItemRef>
            <ItemRef ItemOID="IT.PP.PPORRES.PP.PPTESTCD.EQ.CLFO" OrderNumber="4" Mandatory="No">
               <def:WhereClauseRef WhereClauseOID="WC.PP.PPTESTCD.EQ.CLFO"/>
            </ItemRef>
            <ItemRef ItemOID="IT.PP.PPORRES.PP.PPTESTCD.EQ.CMAX" OrderNumber="5" Mandatory="No">
               <def:WhereClauseRef WhereClauseOID="WC.PP.PPTESTCD.EQ.CMAX"/>
            </ItemRef>
            <ItemRef ItemOID="IT.PP.PPORRES.PP.PPTESTCD.EQ.LAMZHL" OrderNumber="6" Mandatory="No">
               <def:WhereClauseRef WhereClauseOID="WC.PP.PPTESTCD.EQ.LAMZHL"/>
            </ItemRef>
            <ItemRef ItemOID="IT.PP.PPORRES.PP.PPTESTCD.EQ.RACAUC" OrderNumber="7" Mandatory="No">
               <def:WhereClauseRef WhereClauseOID="WC.PP.PPTESTCD.EQ.RACAUC"/>
            </ItemRef>
            <ItemRef ItemOID="IT.PP.PPORRES.PP.PPTESTCD.EQ.RACCMAX" OrderNumber="8" Mandatory="No">
               <def:WhereClauseRef WhereClauseOID="WC.PP.PPTESTCD.EQ.RACCMAX"/>
            </ItemRef>
            <ItemRef ItemOID="IT.PP.PPORRES.PP.PPTESTCD.EQ.TMAX" OrderNumber="9" Mandatory="No">
               <def:WhereClauseRef WhereClauseOID="WC.PP.PPTESTCD.EQ.TMAX"/>
            </ItemRef>
            <ItemRef ItemOID="IT.PP.PPORRES.PP.PPTESTCD.EQ.VZFO" OrderNumber="10" Mandatory="No">
               <def:WhereClauseRef WhereClauseOID="WC.PP.PPTESTCD.EQ.VZFO"/>
            </ItemRef>
         </def:ValueListDef>
         <def:ValueListDef OID="VL.SUPPAE.QVAL">
            <ItemRef ItemOID="IT.SUPPAE.QVAL.SUPPAE.QNAM.EQ.AEACT" OrderNumber="1" Mandatory="No">
               <def:WhereClauseRef WhereClauseOID="WC.SUPPAE.QNAM.EQ.AEACT"/>
            </ItemRef>
            <ItemRef ItemOID="IT.SUPPAE.QVAL.SUPPAE.QNAM.EQ.AEACTOTH" OrderNumber="2" Mandatory="No">
               <def:WhereClauseRef WhereClauseOID="WC.SUPPAE.QNAM.EQ.AEACTOTH"/>
            </ItemRef>
            <ItemRef ItemOID="IT.SUPPAE.QVAL.SUPPAE.QNAM.EQ.AECMNO" OrderNumber="3" Mandatory="No">
               <def:WhereClauseRef WhereClauseOID="WC.SUPPAE.QNAM.EQ.AECMNO"/>
            </ItemRef>
            <ItemRef ItemOID="IT.SUPPAE.QVAL.SUPPAE.QNAM.EQ.AEDIS" OrderNumber="4" Mandatory="No">
               <def:WhereClauseRef WhereClauseOID="WC.SUPPAE.QNAM.EQ.AEDIS"/>
            </ItemRef>
            <ItemRef ItemOID="IT.SUPPAE.QVAL.SUPPAE.QNAM.EQ.AEIMP" OrderNumber="5" Mandatory="No">
               <def:WhereClauseRef WhereClauseOID="WC.SUPPAE.QNAM.EQ.AEIMP"/>
            </ItemRef>
            <ItemRef ItemOID="IT.SUPPAE.QVAL.SUPPAE.QNAM.EQ.AEIRYN" OrderNumber="6" Mandatory="No">
               <def:WhereClauseRef WhereClauseOID="WC.SUPPAE.QNAM.EQ.AEIRYN"/>
            </ItemRef>
            <ItemRef ItemOID="IT.SUPPAE.QVAL.SUPPAE.QNAM.EQ.AEPRNO" OrderNumber="7" Mandatory="No">
               <def:WhereClauseRef WhereClauseOID="WC.SUPPAE.QNAM.EQ.AEPRNO"/>
            </ItemRef>
            <ItemRef ItemOID="IT.SUPPAE.QVAL.SUPPAE.QNAM.EQ.AETRTEM" OrderNumber="8" Mandatory="No"
                     MethodOID="MT.Method.AETRTEM">
               <def:WhereClauseRef WhereClauseOID="WC.SUPPAE.QNAM.EQ.AETRTEM"/>
            </ItemRef>
            <ItemRef ItemOID="IT.SUPPAE.QVAL.SUPPAE.QNAM.EQ.AEYN" OrderNumber="9" Mandatory="No">
               <def:WhereClauseRef WhereClauseOID="WC.SUPPAE.QNAM.EQ.AEYN"/>
            </ItemRef>
            <ItemRef ItemOID="IT.SUPPAE.QVAL.SUPPAE.QNAM.EQ.DICNAME" OrderNumber="10" Mandatory="No">
               <def:WhereClauseRef WhereClauseOID="WC.SUPPAE.QNAM.EQ.DICNAME"/>
            </ItemRef>
            <ItemRef ItemOID="IT.SUPPAE.QVAL.SUPPAE.QNAM.EQ.DICVER" OrderNumber="11" Mandatory="No">
               <def:WhereClauseRef WhereClauseOID="WC.SUPPAE.QNAM.EQ.DICVER"/>
            </ItemRef>
         </def:ValueListDef>
         <def:ValueListDef OID="VL.SUPPCM.QVAL">
            <ItemRef ItemOID="IT.SUPPCM.QVAL.SUPPCM.QNAM.EQ.ATC1" OrderNumber="1" Mandatory="No">
               <def:WhereClauseRef WhereClauseOID="WC.SUPPCM.QNAM.EQ.ATC1"/>
            </ItemRef>
            <ItemRef ItemOID="IT.SUPPCM.QVAL.SUPPCM.QNAM.EQ.ATC1CD" OrderNumber="2" Mandatory="No">
               <def:WhereClauseRef WhereClauseOID="WC.SUPPCM.QNAM.EQ.ATC1CD"/>
            </ItemRef>
            <ItemRef ItemOID="IT.SUPPCM.QVAL.SUPPCM.QNAM.EQ.ATC2" OrderNumber="3" Mandatory="No">
               <def:WhereClauseRef WhereClauseOID="WC.SUPPCM.QNAM.EQ.ATC2"/>
            </ItemRef>
            <ItemRef ItemOID="IT.SUPPCM.QVAL.SUPPCM.QNAM.EQ.ATC2CD" OrderNumber="4" Mandatory="No">
               <def:WhereClauseRef WhereClauseOID="WC.SUPPCM.QNAM.EQ.ATC2CD"/>
            </ItemRef>
            <ItemRef ItemOID="IT.SUPPCM.QVAL.SUPPCM.QNAM.EQ.ATC3" OrderNumber="5" Mandatory="No">
               <def:WhereClauseRef WhereClauseOID="WC.SUPPCM.QNAM.EQ.ATC3"/>
            </ItemRef>
            <ItemRef ItemOID="IT.SUPPCM.QVAL.SUPPCM.QNAM.EQ.ATC3CD" OrderNumber="6" Mandatory="No">
               <def:WhereClauseRef WhereClauseOID="WC.SUPPCM.QNAM.EQ.ATC3CD"/>
            </ItemRef>
            <ItemRef ItemOID="IT.SUPPCM.QVAL.SUPPCM.QNAM.EQ.ATC4" OrderNumber="7" Mandatory="No">
               <def:WhereClauseRef WhereClauseOID="WC.SUPPCM.QNAM.EQ.ATC4"/>
            </ItemRef>
            <ItemRef ItemOID="IT.SUPPCM.QVAL.SUPPCM.QNAM.EQ.ATC4CD" OrderNumber="8" Mandatory="No">
               <def:WhereClauseRef WhereClauseOID="WC.SUPPCM.QNAM.EQ.ATC4CD"/>
            </ItemRef>
            <ItemRef ItemOID="IT.SUPPCM.QVAL.SUPPCM.QNAM.EQ.CMAENO" OrderNumber="9" Mandatory="No">
               <def:WhereClauseRef WhereClauseOID="WC.SUPPCM.QNAM.EQ.CMAENO"/>
            </ItemRef>
            <ItemRef ItemOID="IT.SUPPCM.QVAL.SUPPCM.QNAM.EQ.CMBO" OrderNumber="10" Mandatory="No">
               <def:WhereClauseRef WhereClauseOID="WC.SUPPCM.QNAM.EQ.CMBO"/>
            </ItemRef>
            <ItemRef ItemOID="IT.SUPPCM.QVAL.SUPPCM.QNAM.EQ.CMDOSFRO" OrderNumber="11"
                     Mandatory="No">
               <def:WhereClauseRef WhereClauseOID="WC.SUPPCM.QNAM.EQ.CMDOSFRO"/>
            </ItemRef>
            <ItemRef ItemOID="IT.SUPPCM.QVAL.SUPPCM.QNAM.EQ.CMDOSUO" OrderNumber="12" Mandatory="No">
               <def:WhereClauseRef WhereClauseOID="WC.SUPPCM.QNAM.EQ.CMDOSUO"/>
            </ItemRef>
            <ItemRef ItemOID="IT.SUPPCM.QVAL.SUPPCM.QNAM.EQ.CMINDCO" OrderNumber="13" Mandatory="No">
               <def:WhereClauseRef WhereClauseOID="WC.SUPPCM.QNAM.EQ.CMINDCO"/>
            </ItemRef>
            <ItemRef ItemOID="IT.SUPPCM.QVAL.SUPPCM.QNAM.EQ.CMLOC" OrderNumber="14" Mandatory="No">
               <def:WhereClauseRef WhereClauseOID="WC.SUPPCM.QNAM.EQ.CMLOC"/>
            </ItemRef>
            <ItemRef ItemOID="IT.SUPPCM.QVAL.SUPPCM.QNAM.EQ.CMMHNO" OrderNumber="15" Mandatory="No">
               <def:WhereClauseRef WhereClauseOID="WC.SUPPCM.QNAM.EQ.CMMHNO"/>
            </ItemRef>
            <ItemRef ItemOID="IT.SUPPCM.QVAL.SUPPCM.QNAM.EQ.CMONGO" OrderNumber="16" Mandatory="No">
               <def:WhereClauseRef WhereClauseOID="WC.SUPPCM.QNAM.EQ.CMONGO"/>
            </ItemRef>
            <ItemRef ItemOID="IT.SUPPCM.QVAL.SUPPCM.QNAM.EQ.CMPG" OrderNumber="17" Mandatory="No">
               <def:WhereClauseRef WhereClauseOID="WC.SUPPCM.QNAM.EQ.CMPG"/>
            </ItemRef>
            <ItemRef ItemOID="IT.SUPPCM.QVAL.SUPPCM.QNAM.EQ.CMROUOTH" OrderNumber="18"
                     Mandatory="No">
               <def:WhereClauseRef WhereClauseOID="WC.SUPPCM.QNAM.EQ.CMROUOTH"/>
            </ItemRef>
            <ItemRef ItemOID="IT.SUPPCM.QVAL.SUPPCM.QNAM.EQ.CMSPID" OrderNumber="19" Mandatory="No">
               <def:WhereClauseRef WhereClauseOID="WC.SUPPCM.QNAM.EQ.CMSPID"/>
            </ItemRef>
            <ItemRef ItemOID="IT.SUPPCM.QVAL.SUPPCM.QNAM.EQ.CTHTP" OrderNumber="20" Mandatory="No">
               <def:WhereClauseRef WhereClauseOID="WC.SUPPCM.QNAM.EQ.CTHTP"/>
            </ItemRef>
            <ItemRef ItemOID="IT.SUPPCM.QVAL.SUPPCM.QNAM.EQ.CTHTPOTH" OrderNumber="21"
                     Mandatory="No">
               <def:WhereClauseRef WhereClauseOID="WC.SUPPCM.QNAM.EQ.CTHTPOTH"/>
            </ItemRef>
            <ItemRef ItemOID="IT.SUPPCM.QVAL.SUPPCM.QNAM.EQ.DICVER" OrderNumber="22" Mandatory="No">
               <def:WhereClauseRef WhereClauseOID="WC.SUPPCM.QNAM.EQ.DICVER"/>
            </ItemRef>
         </def:ValueListDef>
         <def:ValueListDef OID="VL.SUPPDM.QVAL">
            <ItemRef ItemOID="IT.SUPPDM.QVAL.SUPPDM.QNAM.EQ.ARMNRS" OrderNumber="1" Mandatory="No"
                     MethodOID="MT.Method.ARMNRS">
               <def:WhereClauseRef WhereClauseOID="WC.SUPPDM.QNAM.EQ.ARMNRS"/>
            </ItemRef>
            <ItemRef ItemOID="IT.SUPPDM.QVAL.SUPPDM.QNAM.EQ.CHBEYN" OrderNumber="2" Mandatory="No">
               <def:WhereClauseRef WhereClauseOID="WC.SUPPDM.QNAM.EQ.CHBEYN"/>
            </ItemRef>
            <ItemRef ItemOID="IT.SUPPDM.QVAL.SUPPDM.QNAM.EQ.DLTYN" OrderNumber="3" Mandatory="No">
               <def:WhereClauseRef WhereClauseOID="WC.SUPPDM.QNAM.EQ.DLTYN"/>
            </ItemRef>
            <ItemRef ItemOID="IT.SUPPDM.QVAL.SUPPDM.QNAM.EQ.DSDECOD" OrderNumber="4" Mandatory="No">
               <def:WhereClauseRef WhereClauseOID="WC.SUPPDM.QNAM.EQ.DSDECOD"/>
            </ItemRef>
            <ItemRef ItemOID="IT.SUPPDM.QVAL.SUPPDM.QNAM.EQ.DSDTC" OrderNumber="5" Mandatory="No">
               <def:WhereClauseRef WhereClauseOID="WC.SUPPDM.QNAM.EQ.DSDTC"/>
            </ItemRef>
            <ItemRef ItemOID="IT.SUPPDM.QVAL.SUPPDM.QNAM.EQ.DSOTH" OrderNumber="6" Mandatory="No">
               <def:WhereClauseRef WhereClauseOID="WC.SUPPDM.QNAM.EQ.DSOTH"/>
            </ItemRef>
            <ItemRef ItemOID="IT.SUPPDM.QVAL.SUPPDM.QNAM.EQ.DSYN" OrderNumber="7" Mandatory="No">
               <def:WhereClauseRef WhereClauseOID="WC.SUPPDM.QNAM.EQ.DSYN"/>
            </ItemRef>
            <ItemRef ItemOID="IT.SUPPDM.QVAL.SUPPDM.QNAM.EQ.DTHREA" OrderNumber="8" Mandatory="No">
               <def:WhereClauseRef WhereClauseOID="WC.SUPPDM.QNAM.EQ.DTHREA"/>
            </ItemRef>
            <ItemRef ItemOID="IT.SUPPDM.QVAL.SUPPDM.QNAM.EQ.ETHNICOT" OrderNumber="9" Mandatory="No">
               <def:WhereClauseRef WhereClauseOID="WC.SUPPDM.QNAM.EQ.ETHNICOT"/>
            </ItemRef>
            <ItemRef ItemOID="IT.SUPPDM.QVAL.SUPPDM.QNAM.EQ.RANDDT" OrderNumber="10" Mandatory="No">
               <def:WhereClauseRef WhereClauseOID="WC.SUPPDM.QNAM.EQ.RANDDT"/>
            </ItemRef>
            <ItemRef ItemOID="IT.SUPPDM.QVAL.SUPPDM.QNAM.EQ.SCRREA" OrderNumber="11" Mandatory="No">
               <def:WhereClauseRef WhereClauseOID="WC.SUPPDM.QNAM.EQ.SCRREA"/>
            </ItemRef>
            <ItemRef ItemOID="IT.SUPPDM.QVAL.SUPPDM.QNAM.EQ.SCRSPEC" OrderNumber="12" Mandatory="No">
               <def:WhereClauseRef WhereClauseOID="WC.SUPPDM.QNAM.EQ.SCRSPEC"/>
            </ItemRef>
            <ItemRef ItemOID="IT.SUPPDM.QVAL.SUPPDM.QNAM.EQ.STATUS" OrderNumber="13" Mandatory="No">
               <def:WhereClauseRef WhereClauseOID="WC.SUPPDM.QNAM.EQ.STATUS"/>
            </ItemRef>
            <ItemRef ItemOID="IT.SUPPDM.QVAL.SUPPDM.QNAM.EQ.STATUSE" OrderNumber="14" Mandatory="No">
               <def:WhereClauseRef WhereClauseOID="WC.SUPPDM.QNAM.EQ.STATUSE"/>
            </ItemRef>
            <ItemRef ItemOID="IT.SUPPDM.QVAL.SUPPDM.QNAM.EQ.TESTNUM" OrderNumber="15" Mandatory="No"
                     MethodOID="MT.Method.TESTNUM">
               <def:WhereClauseRef WhereClauseOID="WC.SUPPDM.QNAM.EQ.TESTNUM"/>
            </ItemRef>
            <ItemRef ItemOID="IT.SUPPDM.QVAL.SUPPDM.QNAM.EQ.TESTNUMC" OrderNumber="16"
                     Mandatory="No">
               <def:WhereClauseRef WhereClauseOID="WC.SUPPDM.QNAM.EQ.TESTNUMC"/>
            </ItemRef>
         </def:ValueListDef>
         <def:ValueListDef OID="VL.SUPPDS.QVAL">
            <ItemRef ItemOID="IT.SUPPDS.QVAL.SUPPDS.QNAM.EQ.DSOTH" OrderNumber="1" Mandatory="No">
               <def:WhereClauseRef WhereClauseOID="WC.SUPPDS.QNAM.EQ.DSOTH"/>
            </ItemRef>
         </def:ValueListDef>
         <def:ValueListDef OID="VL.SUPPDV.QVAL">
            <ItemRef ItemOID="IT.SUPPDV.QVAL.SUPPDV.QNAM.EQ.DVEFF" OrderNumber="1" Mandatory="No">
               <def:WhereClauseRef WhereClauseOID="WC.SUPPDV.QNAM.EQ.DVEFF"/>
            </ItemRef>
            <ItemRef ItemOID="IT.SUPPDV.QVAL.SUPPDV.QNAM.EQ.DVEFF1" OrderNumber="2" Mandatory="No">
               <def:WhereClauseRef WhereClauseOID="WC.SUPPDV.QNAM.EQ.DVEFF1"/>
            </ItemRef>
            <ItemRef ItemOID="IT.SUPPDV.QVAL.SUPPDV.QNAM.EQ.DVEFF2" OrderNumber="3" Mandatory="No">
               <def:WhereClauseRef WhereClauseOID="WC.SUPPDV.QNAM.EQ.DVEFF2"/>
            </ItemRef>
            <ItemRef ItemOID="IT.SUPPDV.QVAL.SUPPDV.QNAM.EQ.DVREDTC" OrderNumber="4" Mandatory="No">
               <def:WhereClauseRef WhereClauseOID="WC.SUPPDV.QNAM.EQ.DVREDTC"/>
            </ItemRef>
            <ItemRef ItemOID="IT.SUPPDV.QVAL.SUPPDV.QNAM.EQ.DVSEV" OrderNumber="5" Mandatory="No">
               <def:WhereClauseRef WhereClauseOID="WC.SUPPDV.QNAM.EQ.DVSEV"/>
            </ItemRef>
            <ItemRef ItemOID="IT.SUPPDV.QVAL.SUPPDV.QNAM.EQ.DVSPEC" OrderNumber="6" Mandatory="No">
               <def:WhereClauseRef WhereClauseOID="WC.SUPPDV.QNAM.EQ.DVSPEC"/>
            </ItemRef>
            <ItemRef ItemOID="IT.SUPPDV.QVAL.SUPPDV.QNAM.EQ.DVTERM1" OrderNumber="7" Mandatory="No">
               <def:WhereClauseRef WhereClauseOID="WC.SUPPDV.QNAM.EQ.DVTERM1"/>
            </ItemRef>
            <ItemRef ItemOID="IT.SUPPDV.QVAL.SUPPDV.QNAM.EQ.DVTERM2" OrderNumber="8" Mandatory="No">
               <def:WhereClauseRef WhereClauseOID="WC.SUPPDV.QNAM.EQ.DVTERM2"/>
            </ItemRef>
            <ItemRef ItemOID="IT.SUPPDV.QVAL.SUPPDV.QNAM.EQ.DVTERM3" OrderNumber="9" Mandatory="No">
               <def:WhereClauseRef WhereClauseOID="WC.SUPPDV.QNAM.EQ.DVTERM3"/>
            </ItemRef>
            <ItemRef ItemOID="IT.SUPPDV.QVAL.SUPPDV.QNAM.EQ.DVTERM4" OrderNumber="10" Mandatory="No">
               <def:WhereClauseRef WhereClauseOID="WC.SUPPDV.QNAM.EQ.DVTERM4"/>
            </ItemRef>
            <ItemRef ItemOID="IT.SUPPDV.QVAL.SUPPDV.QNAM.EQ.DVVISIT" OrderNumber="11" Mandatory="No">
               <def:WhereClauseRef WhereClauseOID="WC.SUPPDV.QNAM.EQ.DVVISIT"/>
            </ItemRef>
            <ItemRef ItemOID="IT.SUPPDV.QVAL.SUPPDV.QNAM.EQ.SITID" OrderNumber="12" Mandatory="No">
               <def:WhereClauseRef WhereClauseOID="WC.SUPPDV.QNAM.EQ.SITID"/>
            </ItemRef>
            <ItemRef ItemOID="IT.SUPPDV.QVAL.SUPPDV.QNAM.EQ.SITNAME" OrderNumber="13" Mandatory="No">
               <def:WhereClauseRef WhereClauseOID="WC.SUPPDV.QNAM.EQ.SITNAME"/>
            </ItemRef>
         </def:ValueListDef>
         <def:ValueListDef OID="VL.SUPPEC.QVAL">
            <ItemRef ItemOID="IT.SUPPEC.QVAL.SUPPEC.QNAM.EQ.ECPDOSE" OrderNumber="1" Mandatory="No">
               <def:WhereClauseRef WhereClauseOID="WC.SUPPEC.QNAM.EQ.ECPDOSE"/>
            </ItemRef>
            <ItemRef ItemOID="IT.SUPPEC.QVAL.SUPPEC.QNAM.EQ.ECPDOSU" OrderNumber="2" Mandatory="No">
               <def:WhereClauseRef WhereClauseOID="WC.SUPPEC.QNAM.EQ.ECPDOSU"/>
            </ItemRef>
            <ItemRef ItemOID="IT.SUPPEC.QVAL.SUPPEC.QNAM.EQ.VISIT" OrderNumber="3" Mandatory="No"
                     MethodOID="MT.Method.VISIT">
               <def:WhereClauseRef WhereClauseOID="WC.SUPPEC.QNAM.EQ.VISIT"/>
            </ItemRef>
            <ItemRef ItemOID="IT.SUPPEC.QVAL.SUPPEC.QNAM.EQ.VISITNUM" OrderNumber="4" Mandatory="No"
                     MethodOID="MT.Method.VISITNUM">
               <def:WhereClauseRef WhereClauseOID="WC.SUPPEC.QNAM.EQ.VISITNUM"/>
            </ItemRef>
         </def:ValueListDef>
         <def:ValueListDef OID="VL.SUPPEG.QVAL">
            <ItemRef ItemOID="IT.SUPPEG.QVAL.SUPPEG.QNAM.EQ.EGLOBXFL" OrderNumber="1" Mandatory="No"
                     MethodOID="MT.Method.EGLOBXFL">
               <def:WhereClauseRef WhereClauseOID="WC.SUPPEG.QNAM.EQ.EGLOBXFL"/>
            </ItemRef>
            <ItemRef ItemOID="IT.SUPPEG.QVAL.SUPPEG.QNAM.EQ.EGSPEC" OrderNumber="2" Mandatory="No">
               <def:WhereClauseRef WhereClauseOID="WC.SUPPEG.QNAM.EQ.EGSPEC"/>
            </ItemRef>
            <ItemRef ItemOID="IT.SUPPEG.QVAL.SUPPEG.QNAM.EQ.EGSPEC1" OrderNumber="3" Mandatory="No">
               <def:WhereClauseRef WhereClauseOID="WC.SUPPEG.QNAM.EQ.EGSPEC1"/>
            </ItemRef>
         </def:ValueListDef>
         <def:ValueListDef OID="VL.SUPPEX.QVAL">
            <ItemRef ItemOID="IT.SUPPEX.QVAL.SUPPEX.QNAM.EQ.EXIRRE" OrderNumber="1" Mandatory="No">
               <def:WhereClauseRef WhereClauseOID="WC.SUPPEX.QNAM.EQ.EXIRRE"/>
            </ItemRef>
            <ItemRef ItemOID="IT.SUPPEX.QVAL.SUPPEX.QNAM.EQ.EXIRYN" OrderNumber="2" Mandatory="No">
               <def:WhereClauseRef WhereClauseOID="WC.SUPPEX.QNAM.EQ.EXIRYN"/>
            </ItemRef>
            <ItemRef ItemOID="IT.SUPPEX.QVAL.SUPPEX.QNAM.EQ.EXPDOSE" OrderNumber="3" Mandatory="No">
               <def:WhereClauseRef WhereClauseOID="WC.SUPPEX.QNAM.EQ.EXPDOSE"/>
            </ItemRef>
            <ItemRef ItemOID="IT.SUPPEX.QVAL.SUPPEX.QNAM.EQ.EXPDOSU" OrderNumber="4" Mandatory="No">
               <def:WhereClauseRef WhereClauseOID="WC.SUPPEX.QNAM.EQ.EXPDOSU"/>
            </ItemRef>
            <ItemRef ItemOID="IT.SUPPEX.QVAL.SUPPEX.QNAM.EQ.VISIT" OrderNumber="5" Mandatory="No"
                     MethodOID="MT.Method.VISIT">
               <def:WhereClauseRef WhereClauseOID="WC.SUPPEX.QNAM.EQ.VISIT"/>
            </ItemRef>
            <ItemRef ItemOID="IT.SUPPEX.QVAL.SUPPEX.QNAM.EQ.VISITNUM" OrderNumber="6" Mandatory="No"
                     MethodOID="MT.Method.VISITNUM">
               <def:WhereClauseRef WhereClauseOID="WC.SUPPEX.QNAM.EQ.VISITNUM"/>
            </ItemRef>
         </def:ValueListDef>
         <def:ValueListDef OID="VL.SUPPIE.QVAL">
            <ItemRef ItemOID="IT.SUPPIE.QVAL.SUPPIE.QNAM.EQ.RFICDTC" OrderNumber="1" Mandatory="No">
               <def:WhereClauseRef WhereClauseOID="WC.SUPPIE.QNAM.EQ.RFICDTC"/>
            </ItemRef>
         </def:ValueListDef>
         <def:ValueListDef OID="VL.SUPPIS.QVAL">
            <ItemRef ItemOID="IT.SUPPIS.QVAL.SUPPIS.QNAM.EQ.ISRFTDTC" OrderNumber="1" Mandatory="No">
               <def:WhereClauseRef WhereClauseOID="WC.SUPPIS.QNAM.EQ.ISRFTDTC"/>
            </ItemRef>
            <ItemRef ItemOID="IT.SUPPIS.QVAL.SUPPIS.QNAM.EQ.ISTPT" OrderNumber="2" Mandatory="No">
               <def:WhereClauseRef WhereClauseOID="WC.SUPPIS.QNAM.EQ.ISTPT"/>
            </ItemRef>
            <ItemRef ItemOID="IT.SUPPIS.QVAL.SUPPIS.QNAM.EQ.ISTPTD" OrderNumber="3" Mandatory="No">
               <def:WhereClauseRef WhereClauseOID="WC.SUPPIS.QNAM.EQ.ISTPTD"/>
            </ItemRef>
            <ItemRef ItemOID="IT.SUPPIS.QVAL.SUPPIS.QNAM.EQ.ISTPTN" OrderNumber="4" Mandatory="No">
               <def:WhereClauseRef WhereClauseOID="WC.SUPPIS.QNAM.EQ.ISTPTN"/>
            </ItemRef>
            <ItemRef ItemOID="IT.SUPPIS.QVAL.SUPPIS.QNAM.EQ.ISTPTNUM" OrderNumber="5" Mandatory="No"
                     MethodOID="MT.Method.TPTNUM">
               <def:WhereClauseRef WhereClauseOID="WC.SUPPIS.QNAM.EQ.ISTPTNUM"/>
            </ItemRef>
            <ItemRef ItemOID="IT.SUPPIS.QVAL.SUPPIS.QNAM.EQ.ISTPTREF" OrderNumber="6" Mandatory="No">
               <def:WhereClauseRef WhereClauseOID="WC.SUPPIS.QNAM.EQ.ISTPTREF"/>
            </ItemRef>
         </def:ValueListDef>
         <def:ValueListDef OID="VL.SUPPLB.QVAL">
            <ItemRef ItemOID="IT.SUPPLB.QVAL.SUPPLB.QNAM.EQ.LBCATN" OrderNumber="1" Mandatory="No">
               <def:WhereClauseRef WhereClauseOID="WC.SUPPLB.QNAM.EQ.LBCATN"/>
            </ItemRef>
            <ItemRef ItemOID="IT.SUPPLB.QVAL.SUPPLB.QNAM.EQ.LBCLSIG" OrderNumber="2" Mandatory="No">
               <def:WhereClauseRef WhereClauseOID="WC.SUPPLB.QNAM.EQ.LBCLSIG"/>
            </ItemRef>
            <ItemRef ItemOID="IT.SUPPLB.QVAL.SUPPLB.QNAM.EQ.LBCLSIGS" OrderNumber="3" Mandatory="No">
               <def:WhereClauseRef WhereClauseOID="WC.SUPPLB.QNAM.EQ.LBCLSIGS"/>
            </ItemRef>
            <ItemRef ItemOID="IT.SUPPLB.QVAL.SUPPLB.QNAM.EQ.LBLOBXFL" OrderNumber="4" Mandatory="No"
                     MethodOID="MT.Method.LBLOBXFL">
               <def:WhereClauseRef WhereClauseOID="WC.SUPPLB.QNAM.EQ.LBLOBXFL"/>
            </ItemRef>
            <ItemRef ItemOID="IT.SUPPLB.QVAL.SUPPLB.QNAM.EQ.LBLVEF" OrderNumber="5" Mandatory="No">
               <def:WhereClauseRef WhereClauseOID="WC.SUPPLB.QNAM.EQ.LBLVEF"/>
            </ItemRef>
            <ItemRef ItemOID="IT.SUPPLB.QVAL.SUPPLB.QNAM.EQ.LBTESTN" OrderNumber="6" Mandatory="No">
               <def:WhereClauseRef WhereClauseOID="WC.SUPPLB.QNAM.EQ.LBTESTN"/>
            </ItemRef>
         </def:ValueListDef>
         <def:ValueListDef OID="VL.SUPPMH.QVAL">
            <ItemRef ItemOID="IT.SUPPMH.QVAL.SUPPMH.QNAM.EQ.DICNAME" OrderNumber="1" Mandatory="No">
               <def:WhereClauseRef WhereClauseOID="WC.SUPPMH.QNAM.EQ.DICNAME"/>
            </ItemRef>
            <ItemRef ItemOID="IT.SUPPMH.QVAL.SUPPMH.QNAM.EQ.DICVER" OrderNumber="2" Mandatory="No">
               <def:WhereClauseRef WhereClauseOID="WC.SUPPMH.QNAM.EQ.DICVER"/>
            </ItemRef>
            <ItemRef ItemOID="IT.SUPPMH.QVAL.SUPPMH.QNAM.EQ.MHONGO" OrderNumber="3" Mandatory="No">
               <def:WhereClauseRef WhereClauseOID="WC.SUPPMH.QNAM.EQ.MHONGO"/>
            </ItemRef>
            <ItemRef ItemOID="IT.SUPPMH.QVAL.SUPPMH.QNAM.EQ.MHSPID" OrderNumber="4" Mandatory="No">
               <def:WhereClauseRef WhereClauseOID="WC.SUPPMH.QNAM.EQ.MHSPID"/>
            </ItemRef>
            <ItemRef ItemOID="IT.SUPPMH.QVAL.SUPPMH.QNAM.EQ.MHSTDY" OrderNumber="5" Mandatory="No"
                     MethodOID="MT.Method.MHSTDY">
               <def:WhereClauseRef WhereClauseOID="WC.SUPPMH.QNAM.EQ.MHSTDY"/>
            </ItemRef>
            <ItemRef ItemOID="IT.SUPPMH.QVAL.SUPPMH.QNAM.EQ.MHTERM1" OrderNumber="6" Mandatory="No">
               <def:WhereClauseRef WhereClauseOID="WC.SUPPMH.QNAM.EQ.MHTERM1"/>
            </ItemRef>
            <ItemRef ItemOID="IT.SUPPMH.QVAL.SUPPMH.QNAM.EQ.MHTTYN" OrderNumber="7" Mandatory="No">
               <def:WhereClauseRef WhereClauseOID="WC.SUPPMH.QNAM.EQ.MHTTYN"/>
            </ItemRef>
         </def:ValueListDef>
         <def:ValueListDef OID="VL.SUPPPC.QVAL">
            <ItemRef ItemOID="IT.SUPPPC.QVAL.SUPPPC.QNAM.EQ.PCDESC" OrderNumber="1" Mandatory="No">
               <def:WhereClauseRef WhereClauseOID="WC.SUPPPC.QNAM.EQ.PCDESC"/>
            </ItemRef>
            <ItemRef ItemOID="IT.SUPPPC.QVAL.SUPPPC.QNAM.EQ.PCTPTD" OrderNumber="2" Mandatory="No">
               <def:WhereClauseRef WhereClauseOID="WC.SUPPPC.QNAM.EQ.PCTPTD"/>
            </ItemRef>
            <ItemRef ItemOID="IT.SUPPPC.QVAL.SUPPPC.QNAM.EQ.PCTPTN" OrderNumber="3" Mandatory="No">
               <def:WhereClauseRef WhereClauseOID="WC.SUPPPC.QNAM.EQ.PCTPTN"/>
            </ItemRef>
         </def:ValueListDef>
         <def:ValueListDef OID="VL.SUPPPE.QVAL">
            <ItemRef ItemOID="IT.SUPPPE.QVAL.SUPPPE.QNAM.EQ.PEBLFL" OrderNumber="1" Mandatory="No"
                     MethodOID="MT.Method.PEBLFL">
               <def:WhereClauseRef WhereClauseOID="WC.SUPPPE.QNAM.EQ.PEBLFL"/>
            </ItemRef>
            <ItemRef ItemOID="IT.SUPPPE.QVAL.SUPPPE.QNAM.EQ.PECATN" OrderNumber="2" Mandatory="No">
               <def:WhereClauseRef WhereClauseOID="WC.SUPPPE.QNAM.EQ.PECATN"/>
            </ItemRef>
            <ItemRef ItemOID="IT.SUPPPE.QVAL.SUPPPE.QNAM.EQ.PECOM" OrderNumber="3" Mandatory="No">
               <def:WhereClauseRef WhereClauseOID="WC.SUPPPE.QNAM.EQ.PECOM"/>
            </ItemRef>
            <ItemRef ItemOID="IT.SUPPPE.QVAL.SUPPPE.QNAM.EQ.PELOBXFL" OrderNumber="4" Mandatory="No"
                     MethodOID="MT.Method.PELOBXFL">
               <def:WhereClauseRef WhereClauseOID="WC.SUPPPE.QNAM.EQ.PELOBXFL"/>
            </ItemRef>
            <ItemRef ItemOID="IT.SUPPPE.QVAL.SUPPPE.QNAM.EQ.PETESTN" OrderNumber="5" Mandatory="No">
               <def:WhereClauseRef WhereClauseOID="WC.SUPPPE.QNAM.EQ.PETESTN"/>
            </ItemRef>
         </def:ValueListDef>
         <def:ValueListDef OID="VL.SUPPPP.QVAL">
            <ItemRef ItemOID="IT.SUPPPP.QVAL.SUPPPP.QNAM.EQ.PPCATN" OrderNumber="1" Mandatory="No">
               <def:WhereClauseRef WhereClauseOID="WC.SUPPPP.QNAM.EQ.PPCATN"/>
            </ItemRef>
            <ItemRef ItemOID="IT.SUPPPP.QVAL.SUPPPP.QNAM.EQ.PPTESTN" OrderNumber="2" Mandatory="No">
               <def:WhereClauseRef WhereClauseOID="WC.SUPPPP.QNAM.EQ.PPTESTN"/>
            </ItemRef>
            <ItemRef ItemOID="IT.SUPPPP.QVAL.SUPPPP.QNAM.EQ.PPTESTRT" OrderNumber="3" Mandatory="No"
                     MethodOID="MT.Method.PPTESTRT">
               <def:WhereClauseRef WhereClauseOID="WC.SUPPPP.QNAM.EQ.PPTESTRT"/>
            </ItemRef>
         </def:ValueListDef>
         <def:ValueListDef OID="VL.SUPPPR.QVAL">
            <ItemRef ItemOID="IT.SUPPPR.QVAL.SUPPPR.QNAM.EQ.DICNAME" OrderNumber="1" Mandatory="No">
               <def:WhereClauseRef WhereClauseOID="WC.SUPPPR.QNAM.EQ.DICNAME"/>
            </ItemRef>
            <ItemRef ItemOID="IT.SUPPPR.QVAL.SUPPPR.QNAM.EQ.DICVER" OrderNumber="2" Mandatory="No">
               <def:WhereClauseRef WhereClauseOID="WC.SUPPPR.QNAM.EQ.DICVER"/>
            </ItemRef>
            <ItemRef ItemOID="IT.SUPPPR.QVAL.SUPPPR.QNAM.EQ.PRBDSYCD" OrderNumber="3" Mandatory="No">
               <def:WhereClauseRef WhereClauseOID="WC.SUPPPR.QNAM.EQ.PRBDSYCD"/>
            </ItemRef>
            <ItemRef ItemOID="IT.SUPPPR.QVAL.SUPPPR.QNAM.EQ.PRBODSYS" OrderNumber="4" Mandatory="No">
               <def:WhereClauseRef WhereClauseOID="WC.SUPPPR.QNAM.EQ.PRBODSYS"/>
            </ItemRef>
            <ItemRef ItemOID="IT.SUPPPR.QVAL.SUPPPR.QNAM.EQ.PRDECOD" OrderNumber="5" Mandatory="No">
               <def:WhereClauseRef WhereClauseOID="WC.SUPPPR.QNAM.EQ.PRDECOD"/>
            </ItemRef>
            <ItemRef ItemOID="IT.SUPPPR.QVAL.SUPPPR.QNAM.EQ.PRHLGT" OrderNumber="6" Mandatory="No">
               <def:WhereClauseRef WhereClauseOID="WC.SUPPPR.QNAM.EQ.PRHLGT"/>
            </ItemRef>
            <ItemRef ItemOID="IT.SUPPPR.QVAL.SUPPPR.QNAM.EQ.PRHLGTCD" OrderNumber="7" Mandatory="No">
               <def:WhereClauseRef WhereClauseOID="WC.SUPPPR.QNAM.EQ.PRHLGTCD"/>
            </ItemRef>
            <ItemRef ItemOID="IT.SUPPPR.QVAL.SUPPPR.QNAM.EQ.PRHLT" OrderNumber="8" Mandatory="No">
               <def:WhereClauseRef WhereClauseOID="WC.SUPPPR.QNAM.EQ.PRHLT"/>
            </ItemRef>
            <ItemRef ItemOID="IT.SUPPPR.QVAL.SUPPPR.QNAM.EQ.PRHLTCD" OrderNumber="9" Mandatory="No">
               <def:WhereClauseRef WhereClauseOID="WC.SUPPPR.QNAM.EQ.PRHLTCD"/>
            </ItemRef>
            <ItemRef ItemOID="IT.SUPPPR.QVAL.SUPPPR.QNAM.EQ.PRINDCO" OrderNumber="10" Mandatory="No">
               <def:WhereClauseRef WhereClauseOID="WC.SUPPPR.QNAM.EQ.PRINDCO"/>
            </ItemRef>
            <ItemRef ItemOID="IT.SUPPPR.QVAL.SUPPPR.QNAM.EQ.PRLLT" OrderNumber="11" Mandatory="No">
               <def:WhereClauseRef WhereClauseOID="WC.SUPPPR.QNAM.EQ.PRLLT"/>
            </ItemRef>
            <ItemRef ItemOID="IT.SUPPPR.QVAL.SUPPPR.QNAM.EQ.PRLLTCD" OrderNumber="12" Mandatory="No">
               <def:WhereClauseRef WhereClauseOID="WC.SUPPPR.QNAM.EQ.PRLLTCD"/>
            </ItemRef>
            <ItemRef ItemOID="IT.SUPPPR.QVAL.SUPPPR.QNAM.EQ.PROLOC" OrderNumber="13" Mandatory="No">
               <def:WhereClauseRef WhereClauseOID="WC.SUPPPR.QNAM.EQ.PROLOC"/>
            </ItemRef>
            <ItemRef ItemOID="IT.SUPPPR.QVAL.SUPPPR.QNAM.EQ.PROLS" OrderNumber="14" Mandatory="No">
               <def:WhereClauseRef WhereClauseOID="WC.SUPPPR.QNAM.EQ.PROLS"/>
            </ItemRef>
            <ItemRef ItemOID="IT.SUPPPR.QVAL.SUPPPR.QNAM.EQ.PROMET" OrderNumber="15" Mandatory="No">
               <def:WhereClauseRef WhereClauseOID="WC.SUPPPR.QNAM.EQ.PROMET"/>
            </ItemRef>
            <ItemRef ItemOID="IT.SUPPPR.QVAL.SUPPPR.QNAM.EQ.PRPTCD" OrderNumber="16" Mandatory="No">
               <def:WhereClauseRef WhereClauseOID="WC.SUPPPR.QNAM.EQ.PRPTCD"/>
            </ItemRef>
            <ItemRef ItemOID="IT.SUPPPR.QVAL.SUPPPR.QNAM.EQ.PRSOC" OrderNumber="17" Mandatory="No">
               <def:WhereClauseRef WhereClauseOID="WC.SUPPPR.QNAM.EQ.PRSOC"/>
            </ItemRef>
            <ItemRef ItemOID="IT.SUPPPR.QVAL.SUPPPR.QNAM.EQ.PRSOCCD" OrderNumber="18" Mandatory="No">
               <def:WhereClauseRef WhereClauseOID="WC.SUPPPR.QNAM.EQ.PRSOCCD"/>
            </ItemRef>
            <ItemRef ItemOID="IT.SUPPPR.QVAL.SUPPPR.QNAM.EQ.PRSPID" OrderNumber="19" Mandatory="No">
               <def:WhereClauseRef WhereClauseOID="WC.SUPPPR.QNAM.EQ.PRSPID"/>
            </ItemRef>
         </def:ValueListDef>
         <def:ValueListDef OID="VL.SUPPRS.QVAL">
            <ItemRef ItemOID="IT.SUPPRS.QVAL.SUPPRS.QNAM.EQ.RSBLFL" OrderNumber="1" Mandatory="No"
                     MethodOID="MT.Method.RSBLFL">
               <def:WhereClauseRef WhereClauseOID="WC.SUPPRS.QNAM.EQ.RSBLFL"/>
            </ItemRef>
            <ItemRef ItemOID="IT.SUPPRS.QVAL.SUPPRS.QNAM.EQ.RSLOBXFL" OrderNumber="2" Mandatory="No"
                     MethodOID="MT.Method.RSLOBXFL">
               <def:WhereClauseRef WhereClauseOID="WC.SUPPRS.QNAM.EQ.RSLOBXFL"/>
            </ItemRef>
         </def:ValueListDef>
         <def:ValueListDef OID="VL.SUPPSS.QVAL">
            <ItemRef ItemOID="IT.SUPPSS.QVAL.SUPPSS.QNAM.EQ.DTHDTC" OrderNumber="1" Mandatory="No">
               <def:WhereClauseRef WhereClauseOID="WC.SUPPSS.QNAM.EQ.DTHDTC"/>
            </ItemRef>
            <ItemRef ItemOID="IT.SUPPSS.QVAL.SUPPSS.QNAM.EQ.SSSFS" OrderNumber="2" Mandatory="No">
               <def:WhereClauseRef WhereClauseOID="WC.SUPPSS.QNAM.EQ.SSSFS"/>
            </ItemRef>
            <ItemRef ItemOID="IT.SUPPSS.QVAL.SUPPSS.QNAM.EQ.SSWAY" OrderNumber="3" Mandatory="No">
               <def:WhereClauseRef WhereClauseOID="WC.SUPPSS.QNAM.EQ.SSWAY"/>
            </ItemRef>
         </def:ValueListDef>
         <def:ValueListDef OID="VL.SUPPSV.QVAL">
            <ItemRef ItemOID="IT.SUPPSV.QVAL.SUPPSV.QNAM.EQ.SVOCCUR" OrderNumber="1" Mandatory="No"
                     MethodOID="MT.Method.SVOCCUR">
               <def:WhereClauseRef WhereClauseOID="WC.SUPPSV.QNAM.EQ.SVOCCUR"/>
            </ItemRef>
            <ItemRef ItemOID="IT.SUPPSV.QVAL.SUPPSV.QNAM.EQ.SVPRESP" OrderNumber="2" Mandatory="No"
                     MethodOID="MT.Method.SVPRESP">
               <def:WhereClauseRef WhereClauseOID="WC.SUPPSV.QNAM.EQ.SVPRESP"/>
            </ItemRef>
         </def:ValueListDef>
         <def:ValueListDef OID="VL.SUPPTR.QVAL">
            <ItemRef ItemOID="IT.SUPPTR.QVAL.SUPPTR.QNAM.EQ.ORGAN" OrderNumber="1" Mandatory="No">
               <def:WhereClauseRef WhereClauseOID="WC.SUPPTR.QNAM.EQ.ORGAN"/>
            </ItemRef>
            <ItemRef ItemOID="IT.SUPPTR.QVAL.SUPPTR.QNAM.EQ.PART" OrderNumber="2" Mandatory="No">
               <def:WhereClauseRef WhereClauseOID="WC.SUPPTR.QNAM.EQ.PART"/>
            </ItemRef>
            <ItemRef ItemOID="IT.SUPPTR.QVAL.SUPPTR.QNAM.EQ.TRLOBXFL" OrderNumber="3" Mandatory="No"
                     MethodOID="MT.Method.TRLOBXFL">
               <def:WhereClauseRef WhereClauseOID="WC.SUPPTR.QNAM.EQ.TRLOBXFL"/>
            </ItemRef>
            <ItemRef ItemOID="IT.SUPPTR.QVAL.SUPPTR.QNAM.EQ.TRT01A" OrderNumber="4" Mandatory="No"
                     MethodOID="MT.Method.TRT01A">
               <def:WhereClauseRef WhereClauseOID="WC.SUPPTR.QNAM.EQ.TRT01A"/>
            </ItemRef>
         </def:ValueListDef>
         <def:ValueListDef OID="VL.SUPPTU.QVAL">
            <ItemRef ItemOID="IT.SUPPTU.QVAL.SUPPTU.QNAM.EQ.TULOBXFL" OrderNumber="1" Mandatory="No"
                     MethodOID="MT.Method.TULOBXFL">
               <def:WhereClauseRef WhereClauseOID="WC.SUPPTU.QNAM.EQ.TULOBXFL"/>
            </ItemRef>
            <ItemRef ItemOID="IT.SUPPTU.QVAL.SUPPTU.QNAM.EQ.TUPART" OrderNumber="2" Mandatory="No">
               <def:WhereClauseRef WhereClauseOID="WC.SUPPTU.QNAM.EQ.TUPART"/>
            </ItemRef>
         </def:ValueListDef>
         <def:ValueListDef OID="VL.SUPPVS.QVAL">
            <ItemRef ItemOID="IT.SUPPVS.QVAL.SUPPVS.QNAM.EQ.VSCATN" OrderNumber="1" Mandatory="No">
               <def:WhereClauseRef WhereClauseOID="WC.SUPPVS.QNAM.EQ.VSCATN"/>
            </ItemRef>
            <ItemRef ItemOID="IT.SUPPVS.QVAL.SUPPVS.QNAM.EQ.VSCLSIG" OrderNumber="2" Mandatory="No">
               <def:WhereClauseRef WhereClauseOID="WC.SUPPVS.QNAM.EQ.VSCLSIG"/>
            </ItemRef>
            <ItemRef ItemOID="IT.SUPPVS.QVAL.SUPPVS.QNAM.EQ.VSLOBXFL" OrderNumber="3" Mandatory="No"
                     MethodOID="MT.Method.VSLOBXFL">
               <def:WhereClauseRef WhereClauseOID="WC.SUPPVS.QNAM.EQ.VSLOBXFL"/>
            </ItemRef>
            <ItemRef ItemOID="IT.SUPPVS.QVAL.SUPPVS.QNAM.EQ.VSNRIND" OrderNumber="4" Mandatory="No"
                     MethodOID="MT.Method.VSNRIND">
               <def:WhereClauseRef WhereClauseOID="WC.SUPPVS.QNAM.EQ.VSNRIND"/>
            </ItemRef>
            <ItemRef ItemOID="IT.SUPPVS.QVAL.SUPPVS.QNAM.EQ.VSSPEC" OrderNumber="5" Mandatory="No">
               <def:WhereClauseRef WhereClauseOID="WC.SUPPVS.QNAM.EQ.VSSPEC"/>
            </ItemRef>
            <ItemRef ItemOID="IT.SUPPVS.QVAL.SUPPVS.QNAM.EQ.VSSTNRC" OrderNumber="6" Mandatory="No">
               <def:WhereClauseRef WhereClauseOID="WC.SUPPVS.QNAM.EQ.VSSTNRC"/>
            </ItemRef>
            <ItemRef ItemOID="IT.SUPPVS.QVAL.SUPPVS.QNAM.EQ.VSTESTN" OrderNumber="7" Mandatory="No">
               <def:WhereClauseRef WhereClauseOID="WC.SUPPVS.QNAM.EQ.VSTESTN"/>
            </ItemRef>
         </def:ValueListDef>
         <def:ValueListDef OID="VL.TS.TSVAL">
            <ItemRef ItemOID="IT.TS.TSVAL.TS.TSPARMCD.EQ.ACTSUB" OrderNumber="1" Mandatory="No"
                     MethodOID="MT.MT.VLM.4">
               <def:WhereClauseRef WhereClauseOID="WC.TS.TSPARMCD.EQ.ACTSUB"/>
            </ItemRef>
            <ItemRef ItemOID="IT.TS.TSVAL.TS.TSPARMCD.EQ.ACTSUB" OrderNumber="2" Mandatory="No"
                     MethodOID="MT.MT.VLM.4">
               <def:WhereClauseRef WhereClauseOID="WC.TS.TSPARMCD.EQ.ACTSUB"/>
            </ItemRef>
            <ItemRef ItemOID="IT.TS.TSVAL.TS.TSPARMCD.EQ.AGEMAX" OrderNumber="3" Mandatory="No"
                     MethodOID="MT.MT.VLM.27">
               <def:WhereClauseRef WhereClauseOID="WC.TS.TSPARMCD.EQ.AGEMAX"/>
            </ItemRef>
            <ItemRef ItemOID="IT.TS.TSVAL.TS.TSPARMCD.EQ.AGEMIN" OrderNumber="4" Mandatory="No"
                     MethodOID="MT.MT.VLM.25">
               <def:WhereClauseRef WhereClauseOID="WC.TS.TSPARMCD.EQ.AGEMIN"/>
            </ItemRef>
            <ItemRef ItemOID="IT.TS.TSVAL.TS.TSPARMCD.EQ.DCUTDESC" OrderNumber="5" Mandatory="No"
                     MethodOID="MT.MT.VLM.14">
               <def:WhereClauseRef WhereClauseOID="WC.TS.TSPARMCD.EQ.DCUTDESC"/>
            </ItemRef>
            <ItemRef ItemOID="IT.TS.TSVAL.TS.TSPARMCD.EQ.DCUTDTC" OrderNumber="6" Mandatory="No"
                     MethodOID="MT.MT.VLM.7">
               <def:WhereClauseRef WhereClauseOID="WC.TS.TSPARMCD.EQ.DCUTDTC"/>
            </ItemRef>
            <ItemRef ItemOID="IT.TS.TSVAL.TS.TSPARMCD.EQ.DOSE" OrderNumber="7" Mandatory="No"
                     MethodOID="MT.MT.VLM.1">
               <def:WhereClauseRef WhereClauseOID="WC.TS.TSPARMCD.EQ.DOSE"/>
            </ItemRef>
            <ItemRef ItemOID="IT.TS.TSVAL.TS.TSPARMCD.EQ.DOSFRM" OrderNumber="8" Mandatory="No"
                     MethodOID="MT.MT.VLM.17">
               <def:WhereClauseRef WhereClauseOID="WC.TS.TSPARMCD.EQ.DOSFRM"/>
            </ItemRef>
            <ItemRef ItemOID="IT.TS.TSVAL.TS.TSPARMCD.EQ.DOSFRQ" OrderNumber="9" Mandatory="No"
                     MethodOID="MT.MT.VLM.23">
               <def:WhereClauseRef WhereClauseOID="WC.TS.TSPARMCD.EQ.DOSFRQ"/>
            </ItemRef>
            <ItemRef ItemOID="IT.TS.TSVAL.TS.TSPARMCD.EQ.DOSU" OrderNumber="10" Mandatory="No"
                     MethodOID="MT.MT.VLM.31">
               <def:WhereClauseRef WhereClauseOID="WC.TS.TSPARMCD.EQ.DOSU"/>
            </ItemRef>
            <ItemRef ItemOID="IT.TS.TSVAL.TS.TSPARMCD.EQ.FCNTRY" OrderNumber="11" Mandatory="No"
                     MethodOID="MT.MT.VLM.13">
               <def:WhereClauseRef WhereClauseOID="WC.TS.TSPARMCD.EQ.FCNTRY"/>
            </ItemRef>
            <ItemRef ItemOID="IT.TS.TSVAL.TS.TSPARMCD.EQ.HLTSUBJI" OrderNumber="12" Mandatory="No"
                     MethodOID="MT.MT.VLM.21">
               <def:WhereClauseRef WhereClauseOID="WC.TS.TSPARMCD.EQ.HLTSUBJI"/>
            </ItemRef>
            <ItemRef ItemOID="IT.TS.TSVAL.TS.TSPARMCD.EQ.INTMODEL" OrderNumber="13" Mandatory="No"
                     MethodOID="MT.MT.VLM.29">
               <def:WhereClauseRef WhereClauseOID="WC.TS.TSPARMCD.EQ.INTMODEL"/>
            </ItemRef>
            <ItemRef ItemOID="IT.TS.TSVAL.TS.TSPARMCD.EQ.INTTYPE" OrderNumber="14" Mandatory="No"
                     MethodOID="MT.MT.VLM.16">
               <def:WhereClauseRef WhereClauseOID="WC.TS.TSPARMCD.EQ.INTTYPE"/>
            </ItemRef>
            <ItemRef ItemOID="IT.TS.TSVAL.TS.TSPARMCD.EQ.LENGTH" OrderNumber="15" Mandatory="No"
                     MethodOID="MT.MT.VLM.26">
               <def:WhereClauseRef WhereClauseOID="WC.TS.TSPARMCD.EQ.LENGTH"/>
            </ItemRef>
            <ItemRef ItemOID="IT.TS.TSVAL.TS.TSPARMCD.EQ.NARMS" OrderNumber="16" Mandatory="No"
                     MethodOID="MT.MT.VLM.9">
               <def:WhereClauseRef WhereClauseOID="WC.TS.TSPARMCD.EQ.NARMS"/>
            </ItemRef>
            <ItemRef ItemOID="IT.TS.TSVAL.TS.TSPARMCD.EQ.NCOHORT" OrderNumber="17" Mandatory="No"
                     MethodOID="MT.MT.VLM.9">
               <def:WhereClauseRef WhereClauseOID="WC.TS.TSPARMCD.EQ.NCOHORT"/>
            </ItemRef>
            <ItemRef ItemOID="IT.TS.TSVAL.TS.TSPARMCD.EQ.OBJPRIM" OrderNumber="18" Mandatory="No"
                     MethodOID="MT.MT.VLM.38">
               <def:WhereClauseRef WhereClauseOID="WC.TS.TSPARMCD.EQ.OBJPRIM"/>
            </ItemRef>
            <ItemRef ItemOID="IT.TS.TSVAL.TS.TSPARMCD.EQ.OBJSEC" OrderNumber="19" Mandatory="No"
                     MethodOID="MT.MT.VLM.39">
               <def:WhereClauseRef WhereClauseOID="WC.TS.TSPARMCD.EQ.OBJSEC"/>
            </ItemRef>
            <ItemRef ItemOID="IT.TS.TSVAL.TS.TSPARMCD.EQ.OUTMSPRI" OrderNumber="20" Mandatory="No"
                     MethodOID="MT.MT.VLM.10">
               <def:WhereClauseRef WhereClauseOID="WC.TS.TSPARMCD.EQ.OUTMSPRI"/>
            </ItemRef>
            <ItemRef ItemOID="IT.TS.TSVAL.TS.TSPARMCD.EQ.OUTMSSEC" OrderNumber="21" Mandatory="No"
                     MethodOID="MT.MT.VLM.36">
               <def:WhereClauseRef WhereClauseOID="WC.TS.TSPARMCD.EQ.OUTMSSEC"/>
            </ItemRef>
            <ItemRef ItemOID="IT.TS.TSVAL.TS.TSPARMCD.EQ.PCLAS" OrderNumber="22" Mandatory="No"
                     MethodOID="MT.MT.VLM.11">
               <def:WhereClauseRef WhereClauseOID="WC.TS.TSPARMCD.EQ.PCLAS"/>
            </ItemRef>
            <ItemRef ItemOID="IT.TS.TSVAL.TS.TSPARMCD.EQ.PLANSUB" OrderNumber="23" Mandatory="No"
                     MethodOID="MT.MT.VLM.3">
               <def:WhereClauseRef WhereClauseOID="WC.TS.TSPARMCD.EQ.PLANSUB"/>
            </ItemRef>
            <ItemRef ItemOID="IT.TS.TSVAL.TS.TSPARMCD.EQ.RANDOM" OrderNumber="24" Mandatory="No"
                     MethodOID="MT.MT.VLM.21">
               <def:WhereClauseRef WhereClauseOID="WC.TS.TSPARMCD.EQ.RANDOM"/>
            </ItemRef>
            <ItemRef ItemOID="IT.TS.TSVAL.TS.TSPARMCD.EQ.REGID" OrderNumber="25" Mandatory="No"
                     MethodOID="MT.MT.VLM.22">
               <def:WhereClauseRef WhereClauseOID="WC.TS.TSPARMCD.EQ.REGID"/>
            </ItemRef>
            <ItemRef ItemOID="IT.TS.TSVAL.TS.TSPARMCD.EQ.ROUTE" OrderNumber="26" Mandatory="No"
                     MethodOID="MT.MT.VLM.19">
               <def:WhereClauseRef WhereClauseOID="WC.TS.TSPARMCD.EQ.ROUTE"/>
            </ItemRef>
            <ItemRef ItemOID="IT.TS.TSVAL.TS.TSPARMCD.EQ.SDTIGVER" OrderNumber="27" Mandatory="No"
                     MethodOID="MT.MT.VLM.8">
               <def:WhereClauseRef WhereClauseOID="WC.TS.TSPARMCD.EQ.SDTIGVER"/>
            </ItemRef>
            <ItemRef ItemOID="IT.TS.TSVAL.TS.TSPARMCD.EQ.SDTMVER" OrderNumber="28" Mandatory="No"
                     MethodOID="MT.MT.VLM.2">
               <def:WhereClauseRef WhereClauseOID="WC.TS.TSPARMCD.EQ.SDTMVER"/>
            </ItemRef>
            <ItemRef ItemOID="IT.TS.TSVAL.TS.TSPARMCD.EQ.SENDTC" OrderNumber="29" Mandatory="No"
                     MethodOID="MT.MT.VLM.6">
               <def:WhereClauseRef WhereClauseOID="WC.TS.TSPARMCD.EQ.SENDTC"/>
            </ItemRef>
            <ItemRef ItemOID="IT.TS.TSVAL.TS.TSPARMCD.EQ.SEXPOP" OrderNumber="30" Mandatory="No"
                     MethodOID="MT.MT.VLM.12">
               <def:WhereClauseRef WhereClauseOID="WC.TS.TSPARMCD.EQ.SEXPOP"/>
            </ItemRef>
            <ItemRef ItemOID="IT.TS.TSVAL.TS.TSPARMCD.EQ.SPONSOR" OrderNumber="31" Mandatory="No"
                     MethodOID="MT.MT.VLM.35">
               <def:WhereClauseRef WhereClauseOID="WC.TS.TSPARMCD.EQ.SPONSOR"/>
            </ItemRef>
            <ItemRef ItemOID="IT.TS.TSVAL.TS.TSPARMCD.EQ.SSTDTC" OrderNumber="32" Mandatory="No"
                     MethodOID="MT.MT.VLM.5">
               <def:WhereClauseRef WhereClauseOID="WC.TS.TSPARMCD.EQ.SSTDTC"/>
            </ItemRef>
            <ItemRef ItemOID="IT.TS.TSVAL.TS.TSPARMCD.EQ.STOPRULE" OrderNumber="33" Mandatory="No"
                     MethodOID="MT.MT.VLM.32">
               <def:WhereClauseRef WhereClauseOID="WC.TS.TSPARMCD.EQ.STOPRULE"/>
            </ItemRef>
            <ItemRef ItemOID="IT.TS.TSVAL.TS.TSPARMCD.EQ.STYPE" OrderNumber="34" Mandatory="No"
                     MethodOID="MT.MT.VLM.18">
               <def:WhereClauseRef WhereClauseOID="WC.TS.TSPARMCD.EQ.STYPE"/>
            </ItemRef>
            <ItemRef ItemOID="IT.TS.TSVAL.TS.TSPARMCD.EQ.TBLIND" OrderNumber="35" Mandatory="No"
                     MethodOID="MT.MT.VLM.24">
               <def:WhereClauseRef WhereClauseOID="WC.TS.TSPARMCD.EQ.TBLIND"/>
            </ItemRef>
            <ItemRef ItemOID="IT.TS.TSVAL.TS.TSPARMCD.EQ.TDIGRP" OrderNumber="36" Mandatory="No"
                     MethodOID="MT.MT.VLM.33">
               <def:WhereClauseRef WhereClauseOID="WC.TS.TSPARMCD.EQ.TDIGRP"/>
            </ItemRef>
            <ItemRef ItemOID="IT.TS.TSVAL.TS.TSPARMCD.EQ.THERAREA" OrderNumber="37" Mandatory="No"
                     MethodOID="MT.MT.VLM.20">
               <def:WhereClauseRef WhereClauseOID="WC.TS.TSPARMCD.EQ.THERAREA"/>
            </ItemRef>
            <ItemRef ItemOID="IT.TS.TSVAL.TS.TSPARMCD.EQ.TINDTP" OrderNumber="38" Mandatory="No"
                     MethodOID="MT.MT.VLM.30">
               <def:WhereClauseRef WhereClauseOID="WC.TS.TSPARMCD.EQ.TINDTP"/>
            </ItemRef>
            <ItemRef ItemOID="IT.TS.TSVAL.TS.TSPARMCD.EQ.TITLE" OrderNumber="39" Mandatory="No"
                     MethodOID="MT.MT.VLM.37">
               <def:WhereClauseRef WhereClauseOID="WC.TS.TSPARMCD.EQ.TITLE"/>
            </ItemRef>
            <ItemRef ItemOID="IT.TS.TSVAL.TS.TSPARMCD.EQ.TPHASE" OrderNumber="40" Mandatory="No"
                     MethodOID="MT.MT.VLM.28">
               <def:WhereClauseRef WhereClauseOID="WC.TS.TSPARMCD.EQ.TPHASE"/>
            </ItemRef>
            <ItemRef ItemOID="IT.TS.TSVAL.TS.TSPARMCD.EQ.TRT" OrderNumber="41" Mandatory="No"
                     MethodOID="MT.MT.VLM.34">
               <def:WhereClauseRef WhereClauseOID="WC.TS.TSPARMCD.EQ.TRT"/>
            </ItemRef>
            <ItemRef ItemOID="IT.TS.TSVAL.TS.TSPARMCD.EQ.TTYPE" OrderNumber="42" Mandatory="No"
                     MethodOID="MT.MT.VLM.15">
               <def:WhereClauseRef WhereClauseOID="WC.TS.TSPARMCD.EQ.TTYPE"/>
            </ItemRef>
         </def:ValueListDef>
         <def:ValueListDef OID="VL.VS.VSORRES">
            <ItemRef ItemOID="IT.VS.VSORRES.VS.VSTESTCD.EQ.BMI" OrderNumber="1" Mandatory="No">
               <def:WhereClauseRef WhereClauseOID="WC.VS.VSTESTCD.EQ.BMI"/>
            </ItemRef>
            <ItemRef ItemOID="IT.VS.VSORRES.VS.VSTESTCD.EQ.DIABP" OrderNumber="2" Mandatory="No">
               <def:WhereClauseRef WhereClauseOID="WC.VS.VSTESTCD.EQ.DIABP"/>
            </ItemRef>
            <ItemRef ItemOID="IT.VS.VSORRES.VS.VSTESTCD.EQ.HEIGHT" OrderNumber="3" Mandatory="No">
               <def:WhereClauseRef WhereClauseOID="WC.VS.VSTESTCD.EQ.HEIGHT"/>
            </ItemRef>
            <ItemRef ItemOID="IT.VS.VSORRES.VS.VSTESTCD.EQ.PULSE" OrderNumber="4" Mandatory="No">
               <def:WhereClauseRef WhereClauseOID="WC.VS.VSTESTCD.EQ.PULSE"/>
            </ItemRef>
            <ItemRef ItemOID="IT.VS.VSORRES.VS.VSTESTCD.EQ.RESP" OrderNumber="5" Mandatory="No">
               <def:WhereClauseRef WhereClauseOID="WC.VS.VSTESTCD.EQ.RESP"/>
            </ItemRef>
            <ItemRef ItemOID="IT.VS.VSORRES.VS.VSTESTCD.EQ.SYSBP" OrderNumber="6" Mandatory="No">
               <def:WhereClauseRef WhereClauseOID="WC.VS.VSTESTCD.EQ.SYSBP"/>
            </ItemRef>
            <ItemRef ItemOID="IT.VS.VSORRES.VS.VSTESTCD.EQ.TEMP" OrderNumber="7" Mandatory="No">
               <def:WhereClauseRef WhereClauseOID="WC.VS.VSTESTCD.EQ.TEMP"/>
            </ItemRef>
            <ItemRef ItemOID="IT.VS.VSORRES.VS.VSTESTCD.EQ.WEIGHT" OrderNumber="8" Mandatory="No">
               <def:WhereClauseRef WhereClauseOID="WC.VS.VSTESTCD.EQ.WEIGHT"/>
            </ItemRef>
         </def:ValueListDef>
         <def:WhereClauseDef OID="WC.EG.EGTESTCD.EQ.INTP">
            <RangeCheck SoftHard="Soft" def:ItemOID="IT.EG.EGTESTCD" Comparator="EQ">
               <CheckValue>INTP</CheckValue>
            </RangeCheck>
         </def:WhereClauseDef>
         <def:WhereClauseDef OID="WC.EG.EGTESTCD.EQ.PRAG">
            <RangeCheck SoftHard="Soft" def:ItemOID="IT.EG.EGTESTCD" Comparator="EQ">
               <CheckValue>PRAG</CheckValue>
            </RangeCheck>
         </def:WhereClauseDef>
         <def:WhereClauseDef OID="WC.EG.EGTESTCD.EQ.PULSE">
            <RangeCheck SoftHard="Soft" def:ItemOID="IT.EG.EGTESTCD" Comparator="EQ">
               <CheckValue>PULSE</CheckValue>
            </RangeCheck>
         </def:WhereClauseDef>
         <def:WhereClauseDef OID="WC.EG.EGTESTCD.EQ.QRSAG">
            <RangeCheck SoftHard="Soft" def:ItemOID="IT.EG.EGTESTCD" Comparator="EQ">
               <CheckValue>QRSAG</CheckValue>
            </RangeCheck>
         </def:WhereClauseDef>
         <def:WhereClauseDef OID="WC.EG.EGTESTCD.EQ.QTAG">
            <RangeCheck SoftHard="Soft" def:ItemOID="IT.EG.EGTESTCD" Comparator="EQ">
               <CheckValue>QTAG</CheckValue>
            </RangeCheck>
         </def:WhereClauseDef>
         <def:WhereClauseDef OID="WC.EG.EGTESTCD.EQ.QTCLAG">
            <RangeCheck SoftHard="Soft" def:ItemOID="IT.EG.EGTESTCD" Comparator="EQ">
               <CheckValue>QTCLAG</CheckValue>
            </RangeCheck>
         </def:WhereClauseDef>
         <def:WhereClauseDef OID="WC.EG.EGTESTCD.EQ.RRAG">
            <RangeCheck SoftHard="Soft" def:ItemOID="IT.EG.EGTESTCD" Comparator="EQ">
               <CheckValue>RRAG</CheckValue>
            </RangeCheck>
         </def:WhereClauseDef>
         <def:WhereClauseDef OID="WC.LB.LBTESTCD.EQ.AB">
            <RangeCheck SoftHard="Soft" def:ItemOID="IT.LB.LBTESTCD" Comparator="EQ">
               <CheckValue>AB</CheckValue>
            </RangeCheck>
         </def:WhereClauseDef>
         <def:WhereClauseDef OID="WC.LB.LBTESTCD.EQ.ACTH">
            <RangeCheck SoftHard="Soft" def:ItemOID="IT.LB.LBTESTCD" Comparator="EQ">
               <CheckValue>ACTH</CheckValue>
            </RangeCheck>
         </def:WhereClauseDef>
         <def:WhereClauseDef OID="WC.LB.LBTESTCD.EQ.AFP">
            <RangeCheck SoftHard="Soft" def:ItemOID="IT.LB.LBTESTCD" Comparator="EQ">
               <CheckValue>AFP</CheckValue>
            </RangeCheck>
         </def:WhereClauseDef>
         <def:WhereClauseDef OID="WC.LB.LBTESTCD.EQ.ALB">
            <RangeCheck SoftHard="Soft" def:ItemOID="IT.LB.LBTESTCD" Comparator="EQ">
               <CheckValue>ALB</CheckValue>
            </RangeCheck>
         </def:WhereClauseDef>
         <def:WhereClauseDef OID="WC.LB.LBTESTCD.EQ.ALP">
            <RangeCheck SoftHard="Soft" def:ItemOID="IT.LB.LBTESTCD" Comparator="EQ">
               <CheckValue>ALP</CheckValue>
            </RangeCheck>
         </def:WhereClauseDef>
         <def:WhereClauseDef OID="WC.LB.LBTESTCD.EQ.ALT">
            <RangeCheck SoftHard="Soft" def:ItemOID="IT.LB.LBTESTCD" Comparator="EQ">
               <CheckValue>ALT</CheckValue>
            </RangeCheck>
         </def:WhereClauseDef>
         <def:WhereClauseDef OID="WC.LB.LBTESTCD.EQ.APT">
            <RangeCheck SoftHard="Soft" def:ItemOID="IT.LB.LBTESTCD" Comparator="EQ">
               <CheckValue>APT</CheckValue>
            </RangeCheck>
         </def:WhereClauseDef>
         <def:WhereClauseDef OID="WC.LB.LBTESTCD.EQ.APTT">
            <RangeCheck SoftHard="Soft" def:ItemOID="IT.LB.LBTESTCD" Comparator="EQ">
               <CheckValue>APTT</CheckValue>
            </RangeCheck>
         </def:WhereClauseDef>
         <def:WhereClauseDef OID="WC.LB.LBTESTCD.EQ.AST">
            <RangeCheck SoftHard="Soft" def:ItemOID="IT.LB.LBTESTCD" Comparator="EQ">
               <CheckValue>AST</CheckValue>
            </RangeCheck>
         </def:WhereClauseDef>
         <def:WhereClauseDef OID="WC.LB.LBTESTCD.EQ.B">
            <RangeCheck SoftHard="Soft" def:ItemOID="IT.LB.LBTESTCD" Comparator="EQ">
               <CheckValue>B</CheckValue>
            </RangeCheck>
         </def:WhereClauseDef>
         <def:WhereClauseDef OID="WC.LB.LBTESTCD.EQ.BASO">
            <RangeCheck SoftHard="Soft" def:ItemOID="IT.LB.LBTESTCD" Comparator="EQ">
               <CheckValue>BASO</CheckValue>
            </RangeCheck>
         </def:WhereClauseDef>
         <def:WhereClauseDef OID="WC.LB.LBTESTCD.EQ.BHCG">
            <RangeCheck SoftHard="Soft" def:ItemOID="IT.LB.LBTESTCD" Comparator="EQ">
               <CheckValue>BHCG</CheckValue>
            </RangeCheck>
         </def:WhereClauseDef>
         <def:WhereClauseDef OID="WC.LB.LBTESTCD.EQ.BILI">
            <RangeCheck SoftHard="Soft" def:ItemOID="IT.LB.LBTESTCD" Comparator="EQ">
               <CheckValue>BILI</CheckValue>
            </RangeCheck>
         </def:WhereClauseDef>
         <def:WhereClauseDef OID="WC.LB.LBTESTCD.EQ.BILIND">
            <RangeCheck SoftHard="Soft" def:ItemOID="IT.LB.LBTESTCD" Comparator="EQ">
               <CheckValue>BILIND</CheckValue>
            </RangeCheck>
         </def:WhereClauseDef>
         <def:WhereClauseDef OID="WC.LB.LBTESTCD.EQ.CA">
            <RangeCheck SoftHard="Soft" def:ItemOID="IT.LB.LBTESTCD" Comparator="EQ">
               <CheckValue>CA</CheckValue>
            </RangeCheck>
         </def:WhereClauseDef>
         <def:WhereClauseDef OID="WC.LB.LBTESTCD.EQ.CA15_3AG">
            <RangeCheck SoftHard="Soft" def:ItemOID="IT.LB.LBTESTCD" Comparator="EQ">
               <CheckValue>CA15_3AG</CheckValue>
            </RangeCheck>
         </def:WhereClauseDef>
         <def:WhereClauseDef OID="WC.LB.LBTESTCD.EQ.CA19_9AG">
            <RangeCheck SoftHard="Soft" def:ItemOID="IT.LB.LBTESTCD" Comparator="EQ">
               <CheckValue>CA19_9AG</CheckValue>
            </RangeCheck>
         </def:WhereClauseDef>
         <def:WhereClauseDef OID="WC.LB.LBTESTCD.EQ.CA72_4AG">
            <RangeCheck SoftHard="Soft" def:ItemOID="IT.LB.LBTESTCD" Comparator="EQ">
               <CheckValue>CA72_4AG</CheckValue>
            </RangeCheck>
         </def:WhereClauseDef>
         <def:WhereClauseDef OID="WC.LB.LBTESTCD.EQ.CA125AG">
            <RangeCheck SoftHard="Soft" def:ItemOID="IT.LB.LBTESTCD" Comparator="EQ">
               <CheckValue>CA125AG</CheckValue>
            </RangeCheck>
         </def:WhereClauseDef>
         <def:WhereClauseDef OID="WC.LB.LBTESTCD.EQ.CA242AG">
            <RangeCheck SoftHard="Soft" def:ItemOID="IT.LB.LBTESTCD" Comparator="EQ">
               <CheckValue>CA242AG</CheckValue>
            </RangeCheck>
         </def:WhereClauseDef>
         <def:WhereClauseDef OID="WC.LB.LBTESTCD.EQ.CD4">
            <RangeCheck SoftHard="Soft" def:ItemOID="IT.LB.LBTESTCD" Comparator="EQ">
               <CheckValue>CD4</CheckValue>
            </RangeCheck>
         </def:WhereClauseDef>
         <def:WhereClauseDef OID="WC.LB.LBTESTCD.EQ.CD8">
            <RangeCheck SoftHard="Soft" def:ItemOID="IT.LB.LBTESTCD" Comparator="EQ">
               <CheckValue>CD8</CheckValue>
            </RangeCheck>
         </def:WhereClauseDef>
         <def:WhereClauseDef OID="WC.LB.LBTESTCD.EQ.CDRA">
            <RangeCheck SoftHard="Soft" def:ItemOID="IT.LB.LBTESTCD" Comparator="EQ">
               <CheckValue>CDRA</CheckValue>
            </RangeCheck>
         </def:WhereClauseDef>
         <def:WhereClauseDef OID="WC.LB.LBTESTCD.EQ.CEA">
            <RangeCheck SoftHard="Soft" def:ItemOID="IT.LB.LBTESTCD" Comparator="EQ">
               <CheckValue>CEA</CheckValue>
            </RangeCheck>
         </def:WhereClauseDef>
         <def:WhereClauseDef OID="WC.LB.LBTESTCD.EQ.CH">
            <RangeCheck SoftHard="Soft" def:ItemOID="IT.LB.LBTESTCD" Comparator="EQ">
               <CheckValue>CH</CheckValue>
            </RangeCheck>
         </def:WhereClauseDef>
         <def:WhereClauseDef OID="WC.LB.LBTESTCD.EQ.CHGB">
            <RangeCheck SoftHard="Soft" def:ItemOID="IT.LB.LBTESTCD" Comparator="EQ">
               <CheckValue>CHGB</CheckValue>
            </RangeCheck>
         </def:WhereClauseDef>
         <def:WhereClauseDef OID="WC.LB.LBTESTCD.EQ.CK">
            <RangeCheck SoftHard="Soft" def:ItemOID="IT.LB.LBTESTCD" Comparator="EQ">
               <CheckValue>CK</CheckValue>
            </RangeCheck>
         </def:WhereClauseDef>
         <def:WhereClauseDef OID="WC.LB.LBTESTCD.EQ.CKMB">
            <RangeCheck SoftHard="Soft" def:ItemOID="IT.LB.LBTESTCD" Comparator="EQ">
               <CheckValue>CKMB</CheckValue>
            </RangeCheck>
         </def:WhereClauseDef>
         <def:WhereClauseDef OID="WC.LB.LBTESTCD.EQ.CL">
            <RangeCheck SoftHard="Soft" def:ItemOID="IT.LB.LBTESTCD" Comparator="EQ">
               <CheckValue>CL</CheckValue>
            </RangeCheck>
         </def:WhereClauseDef>
         <def:WhereClauseDef OID="WC.LB.LBTESTCD.EQ.CODOUL">
            <RangeCheck SoftHard="Soft" def:ItemOID="IT.LB.LBTESTCD" Comparator="EQ">
               <CheckValue>CODOUL</CheckValue>
            </RangeCheck>
         </def:WhereClauseDef>
         <def:WhereClauseDef OID="WC.LB.LBTESTCD.EQ.CORTISOL">
            <RangeCheck SoftHard="Soft" def:ItemOID="IT.LB.LBTESTCD" Comparator="EQ">
               <CheckValue>CORTISOL</CheckValue>
            </RangeCheck>
         </def:WhereClauseDef>
         <def:WhereClauseDef OID="WC.LB.LBTESTCD.EQ.CREAT">
            <RangeCheck SoftHard="Soft" def:ItemOID="IT.LB.LBTESTCD" Comparator="EQ">
               <CheckValue>CREAT</CheckValue>
            </RangeCheck>
         </def:WhereClauseDef>
         <def:WhereClauseDef OID="WC.LB.LBTESTCD.EQ.CYFRA211">
            <RangeCheck SoftHard="Soft" def:ItemOID="IT.LB.LBTESTCD" Comparator="EQ">
               <CheckValue>CYFRA211</CheckValue>
            </RangeCheck>
         </def:WhereClauseDef>
         <def:WhereClauseDef OID="WC.LB.LBTESTCD.EQ.DDIMER">
            <RangeCheck SoftHard="Soft" def:ItemOID="IT.LB.LBTESTCD" Comparator="EQ">
               <CheckValue>DDIMER</CheckValue>
            </RangeCheck>
         </def:WhereClauseDef>
         <def:WhereClauseDef OID="WC.LB.LBTESTCD.EQ.EOS">
            <RangeCheck SoftHard="Soft" def:ItemOID="IT.LB.LBTESTCD" Comparator="EQ">
               <CheckValue>EOS</CheckValue>
            </RangeCheck>
         </def:WhereClauseDef>
         <def:WhereClauseDef OID="WC.LB.LBTESTCD.EQ.ESTR">
            <RangeCheck SoftHard="Soft" def:ItemOID="IT.LB.LBTESTCD" Comparator="EQ">
               <CheckValue>ESTR</CheckValue>
            </RangeCheck>
         </def:WhereClauseDef>
         <def:WhereClauseDef OID="WC.LB.LBTESTCD.EQ.FERRITIN">
            <RangeCheck SoftHard="Soft" def:ItemOID="IT.LB.LBTESTCD" Comparator="EQ">
               <CheckValue>FERRITIN</CheckValue>
            </RangeCheck>
         </def:WhereClauseDef>
         <def:WhereClauseDef OID="WC.LB.LBTESTCD.EQ.FOB">
            <RangeCheck SoftHard="Soft" def:ItemOID="IT.LB.LBTESTCD" Comparator="EQ">
               <CheckValue>FOB</CheckValue>
            </RangeCheck>
         </def:WhereClauseDef>
         <def:WhereClauseDef OID="WC.LB.LBTESTCD.EQ.FOSH">
            <RangeCheck SoftHard="Soft" def:ItemOID="IT.LB.LBTESTCD" Comparator="EQ">
               <CheckValue>FOSH</CheckValue>
            </RangeCheck>
         </def:WhereClauseDef>
         <def:WhereClauseDef OID="WC.LB.LBTESTCD.EQ.FRBC">
            <RangeCheck SoftHard="Soft" def:ItemOID="IT.LB.LBTESTCD" Comparator="EQ">
               <CheckValue>FRBC</CheckValue>
            </RangeCheck>
         </def:WhereClauseDef>
         <def:WhereClauseDef OID="WC.LB.LBTESTCD.EQ.FT3">
            <RangeCheck SoftHard="Soft" def:ItemOID="IT.LB.LBTESTCD" Comparator="EQ">
               <CheckValue>FT3</CheckValue>
            </RangeCheck>
         </def:WhereClauseDef>
         <def:WhereClauseDef OID="WC.LB.LBTESTCD.EQ.FT4">
            <RangeCheck SoftHard="Soft" def:ItemOID="IT.LB.LBTESTCD" Comparator="EQ">
               <CheckValue>FT4</CheckValue>
            </RangeCheck>
         </def:WhereClauseDef>
         <def:WhereClauseDef OID="WC.LB.LBTESTCD.EQ.FWBC">
            <RangeCheck SoftHard="Soft" def:ItemOID="IT.LB.LBTESTCD" Comparator="EQ">
               <CheckValue>FWBC</CheckValue>
            </RangeCheck>
         </def:WhereClauseDef>
         <def:WhereClauseDef OID="WC.LB.LBTESTCD.EQ.GGT">
            <RangeCheck SoftHard="Soft" def:ItemOID="IT.LB.LBTESTCD" Comparator="EQ">
               <CheckValue>GGT</CheckValue>
            </RangeCheck>
         </def:WhereClauseDef>
         <def:WhereClauseDef OID="WC.LB.LBTESTCD.EQ.GLUC">
            <RangeCheck SoftHard="Soft" def:ItemOID="IT.LB.LBTESTCD" Comparator="EQ">
               <CheckValue>GLUC</CheckValue>
            </RangeCheck>
         </def:WhereClauseDef>
         <def:WhereClauseDef OID="WC.LB.LBTESTCD.EQ.HBCAB">
            <RangeCheck SoftHard="Soft" def:ItemOID="IT.LB.LBTESTCD" Comparator="EQ">
               <CheckValue>HBCAB</CheckValue>
            </RangeCheck>
         </def:WhereClauseDef>
         <def:WhereClauseDef OID="WC.LB.LBTESTCD.EQ.HBSAG">
            <RangeCheck SoftHard="Soft" def:ItemOID="IT.LB.LBTESTCD" Comparator="EQ">
               <CheckValue>HBSAG</CheckValue>
            </RangeCheck>
         </def:WhereClauseDef>
         <def:WhereClauseDef OID="WC.LB.LBTESTCD.EQ.HBUN">
            <RangeCheck SoftHard="Soft" def:ItemOID="IT.LB.LBTESTCD" Comparator="EQ">
               <CheckValue>HBUN</CheckValue>
            </RangeCheck>
         </def:WhereClauseDef>
         <def:WhereClauseDef OID="WC.LB.LBTESTCD.EQ.HCG">
            <RangeCheck SoftHard="Soft" def:ItemOID="IT.LB.LBTESTCD" Comparator="EQ">
               <CheckValue>HCG</CheckValue>
            </RangeCheck>
         </def:WhereClauseDef>
         <def:WhereClauseDef OID="WC.LB.LBTESTCD.EQ.HCKMB">
            <RangeCheck SoftHard="Soft" def:ItemOID="IT.LB.LBTESTCD" Comparator="EQ">
               <CheckValue>HCKMB</CheckValue>
            </RangeCheck>
         </def:WhereClauseDef>
         <def:WhereClauseDef OID="WC.LB.LBTESTCD.EQ.HCVAB">
            <RangeCheck SoftHard="Soft" def:ItemOID="IT.LB.LBTESTCD" Comparator="EQ">
               <CheckValue>HCVAB</CheckValue>
            </RangeCheck>
         </def:WhereClauseDef>
         <def:WhereClauseDef OID="WC.LB.LBTESTCD.EQ.HDLC">
            <RangeCheck SoftHard="Soft" def:ItemOID="IT.LB.LBTESTCD" Comparator="EQ">
               <CheckValue>HDLC</CheckValue>
            </RangeCheck>
         </def:WhereClauseDef>
         <def:WhereClauseDef OID="WC.LB.LBTESTCD.EQ.HGB">
            <RangeCheck SoftHard="Soft" def:ItemOID="IT.LB.LBTESTCD" Comparator="EQ">
               <CheckValue>HGB</CheckValue>
            </RangeCheck>
         </def:WhereClauseDef>
         <def:WhereClauseDef OID="WC.LB.LBTESTCD.EQ.HIV">
            <RangeCheck SoftHard="Soft" def:ItemOID="IT.LB.LBTESTCD" Comparator="EQ">
               <CheckValue>HIV</CheckValue>
            </RangeCheck>
         </def:WhereClauseDef>
         <def:WhereClauseDef OID="WC.LB.LBTESTCD.EQ.HUREA">
            <RangeCheck SoftHard="Soft" def:ItemOID="IT.LB.LBTESTCD" Comparator="EQ">
               <CheckValue>HUREA</CheckValue>
            </RangeCheck>
         </def:WhereClauseDef>
         <def:WhereClauseDef OID="WC.LB.LBTESTCD.EQ.IFNA">
            <RangeCheck SoftHard="Soft" def:ItemOID="IT.LB.LBTESTCD" Comparator="EQ">
               <CheckValue>IFNA</CheckValue>
            </RangeCheck>
         </def:WhereClauseDef>
         <def:WhereClauseDef OID="WC.LB.LBTESTCD.EQ.IFNG">
            <RangeCheck SoftHard="Soft" def:ItemOID="IT.LB.LBTESTCD" Comparator="EQ">
               <CheckValue>IFNG</CheckValue>
            </RangeCheck>
         </def:WhereClauseDef>
         <def:WhereClauseDef OID="WC.LB.LBTESTCD.EQ.INR">
            <RangeCheck SoftHard="Soft" def:ItemOID="IT.LB.LBTESTCD" Comparator="EQ">
               <CheckValue>INR</CheckValue>
            </RangeCheck>
         </def:WhereClauseDef>
         <def:WhereClauseDef OID="WC.LB.LBTESTCD.EQ.INTLK1B">
            <RangeCheck SoftHard="Soft" def:ItemOID="IT.LB.LBTESTCD" Comparator="EQ">
               <CheckValue>INTLK1B</CheckValue>
            </RangeCheck>
         </def:WhereClauseDef>
         <def:WhereClauseDef OID="WC.LB.LBTESTCD.EQ.INTLK2">
            <RangeCheck SoftHard="Soft" def:ItemOID="IT.LB.LBTESTCD" Comparator="EQ">
               <CheckValue>INTLK2</CheckValue>
            </RangeCheck>
         </def:WhereClauseDef>
         <def:WhereClauseDef OID="WC.LB.LBTESTCD.EQ.INTLK4">
            <RangeCheck SoftHard="Soft" def:ItemOID="IT.LB.LBTESTCD" Comparator="EQ">
               <CheckValue>INTLK4</CheckValue>
            </RangeCheck>
         </def:WhereClauseDef>
         <def:WhereClauseDef OID="WC.LB.LBTESTCD.EQ.INTLK5">
            <RangeCheck SoftHard="Soft" def:ItemOID="IT.LB.LBTESTCD" Comparator="EQ">
               <CheckValue>INTLK5</CheckValue>
            </RangeCheck>
         </def:WhereClauseDef>
         <def:WhereClauseDef OID="WC.LB.LBTESTCD.EQ.INTLK6">
            <RangeCheck SoftHard="Soft" def:ItemOID="IT.LB.LBTESTCD" Comparator="EQ">
               <CheckValue>INTLK6</CheckValue>
            </RangeCheck>
         </def:WhereClauseDef>
         <def:WhereClauseDef OID="WC.LB.LBTESTCD.EQ.INTLK8">
            <RangeCheck SoftHard="Soft" def:ItemOID="IT.LB.LBTESTCD" Comparator="EQ">
               <CheckValue>INTLK8</CheckValue>
            </RangeCheck>
         </def:WhereClauseDef>
         <def:WhereClauseDef OID="WC.LB.LBTESTCD.EQ.INTLK10">
            <RangeCheck SoftHard="Soft" def:ItemOID="IT.LB.LBTESTCD" Comparator="EQ">
               <CheckValue>INTLK10</CheckValue>
            </RangeCheck>
         </def:WhereClauseDef>
         <def:WhereClauseDef OID="WC.LB.LBTESTCD.EQ.INTLK12">
            <RangeCheck SoftHard="Soft" def:ItemOID="IT.LB.LBTESTCD" Comparator="EQ">
               <CheckValue>INTLK12</CheckValue>
            </RangeCheck>
         </def:WhereClauseDef>
         <def:WhereClauseDef OID="WC.LB.LBTESTCD.EQ.INTLK17">
            <RangeCheck SoftHard="Soft" def:ItemOID="IT.LB.LBTESTCD" Comparator="EQ">
               <CheckValue>INTLK17</CheckValue>
            </RangeCheck>
         </def:WhereClauseDef>
         <def:WhereClauseDef OID="WC.LB.LBTESTCD.EQ.K">
            <RangeCheck SoftHard="Soft" def:ItemOID="IT.LB.LBTESTCD" Comparator="EQ">
               <CheckValue>K</CheckValue>
            </RangeCheck>
         </def:WhereClauseDef>
         <def:WhereClauseDef OID="WC.LB.LBTESTCD.EQ.LDH">
            <RangeCheck SoftHard="Soft" def:ItemOID="IT.LB.LBTESTCD" Comparator="EQ">
               <CheckValue>LDH</CheckValue>
            </RangeCheck>
         </def:WhereClauseDef>
         <def:WhereClauseDef OID="WC.LB.LBTESTCD.EQ.LDL">
            <RangeCheck SoftHard="Soft" def:ItemOID="IT.LB.LBTESTCD" Comparator="EQ">
               <CheckValue>LDL</CheckValue>
            </RangeCheck>
         </def:WhereClauseDef>
         <def:WhereClauseDef OID="WC.LB.LBTESTCD.EQ.LDLC">
            <RangeCheck SoftHard="Soft" def:ItemOID="IT.LB.LBTESTCD" Comparator="EQ">
               <CheckValue>LDLC</CheckValue>
            </RangeCheck>
         </def:WhereClauseDef>
         <def:WhereClauseDef OID="WC.LB.LBTESTCD.EQ.LIPASET">
            <RangeCheck SoftHard="Soft" def:ItemOID="IT.LB.LBTESTCD" Comparator="EQ">
               <CheckValue>LIPASET</CheckValue>
            </RangeCheck>
         </def:WhereClauseDef>
         <def:WhereClauseDef OID="WC.LB.LBTESTCD.EQ.LUHO">
            <RangeCheck SoftHard="Soft" def:ItemOID="IT.LB.LBTESTCD" Comparator="EQ">
               <CheckValue>LUHO</CheckValue>
            </RangeCheck>
         </def:WhereClauseDef>
         <def:WhereClauseDef OID="WC.LB.LBTESTCD.EQ.LYM">
            <RangeCheck SoftHard="Soft" def:ItemOID="IT.LB.LBTESTCD" Comparator="EQ">
               <CheckValue>LYM</CheckValue>
            </RangeCheck>
         </def:WhereClauseDef>
         <def:WhereClauseDef OID="WC.LB.LBTESTCD.EQ.LYMCE">
            <RangeCheck SoftHard="Soft" def:ItemOID="IT.LB.LBTESTCD" Comparator="EQ">
               <CheckValue>LYMCE</CheckValue>
            </RangeCheck>
         </def:WhereClauseDef>
         <def:WhereClauseDef OID="WC.LB.LBTESTCD.EQ.MB">
            <RangeCheck SoftHard="Soft" def:ItemOID="IT.LB.LBTESTCD" Comparator="EQ">
               <CheckValue>MB</CheckValue>
            </RangeCheck>
         </def:WhereClauseDef>
         <def:WhereClauseDef OID="WC.LB.LBTESTCD.EQ.MCV">
            <RangeCheck SoftHard="Soft" def:ItemOID="IT.LB.LBTESTCD" Comparator="EQ">
               <CheckValue>MCV</CheckValue>
            </RangeCheck>
         </def:WhereClauseDef>
         <def:WhereClauseDef OID="WC.LB.LBTESTCD.EQ.MG">
            <RangeCheck SoftHard="Soft" def:ItemOID="IT.LB.LBTESTCD" Comparator="EQ">
               <CheckValue>MG</CheckValue>
            </RangeCheck>
         </def:WhereClauseDef>
         <def:WhereClauseDef OID="WC.LB.LBTESTCD.EQ.MONOCE">
            <RangeCheck SoftHard="Soft" def:ItemOID="IT.LB.LBTESTCD" Comparator="EQ">
               <CheckValue>MONOCE</CheckValue>
            </RangeCheck>
         </def:WhereClauseDef>
         <def:WhereClauseDef OID="WC.LB.LBTESTCD.EQ.NA">
            <RangeCheck SoftHard="Soft" def:ItemOID="IT.LB.LBTESTCD" Comparator="EQ">
               <CheckValue>NA</CheckValue>
            </RangeCheck>
         </def:WhereClauseDef>
         <def:WhereClauseDef OID="WC.LB.LBTESTCD.EQ.NEUT">
            <RangeCheck SoftHard="Soft" def:ItemOID="IT.LB.LBTESTCD" Comparator="EQ">
               <CheckValue>NEUT</CheckValue>
            </RangeCheck>
         </def:WhereClauseDef>
         <def:WhereClauseDef OID="WC.LB.LBTESTCD.EQ.NEUTCE">
            <RangeCheck SoftHard="Soft" def:ItemOID="IT.LB.LBTESTCD" Comparator="EQ">
               <CheckValue>NEUTCE</CheckValue>
            </RangeCheck>
         </def:WhereClauseDef>
         <def:WhereClauseDef OID="WC.LB.LBTESTCD.EQ.NK">
            <RangeCheck SoftHard="Soft" def:ItemOID="IT.LB.LBTESTCD" Comparator="EQ">
               <CheckValue>NK</CheckValue>
            </RangeCheck>
         </def:WhereClauseDef>
         <def:WhereClauseDef OID="WC.LB.LBTESTCD.EQ.NONHDL">
            <RangeCheck SoftHard="Soft" def:ItemOID="IT.LB.LBTESTCD" Comparator="EQ">
               <CheckValue>NONHDL</CheckValue>
            </RangeCheck>
         </def:WhereClauseDef>
         <def:WhereClauseDef OID="WC.LB.LBTESTCD.EQ.OALB">
            <RangeCheck SoftHard="Soft" def:ItemOID="IT.LB.LBTESTCD" Comparator="EQ">
               <CheckValue>OALB</CheckValue>
            </RangeCheck>
         </def:WhereClauseDef>
         <def:WhereClauseDef OID="WC.LB.LBTESTCD.EQ.OB">
            <RangeCheck SoftHard="Soft" def:ItemOID="IT.LB.LBTESTCD" Comparator="EQ">
               <CheckValue>OB</CheckValue>
            </RangeCheck>
         </def:WhereClauseDef>
         <def:WhereClauseDef OID="WC.LB.LBTESTCD.EQ.OB1">
            <RangeCheck SoftHard="Soft" def:ItemOID="IT.LB.LBTESTCD" Comparator="EQ">
               <CheckValue>OB1</CheckValue>
            </RangeCheck>
         </def:WhereClauseDef>
         <def:WhereClauseDef OID="WC.LB.LBTESTCD.EQ.OB2">
            <RangeCheck SoftHard="Soft" def:ItemOID="IT.LB.LBTESTCD" Comparator="EQ">
               <CheckValue>OB2</CheckValue>
            </RangeCheck>
         </def:WhereClauseDef>
         <def:WhereClauseDef OID="WC.LB.LBTESTCD.EQ.OBILDIR">
            <RangeCheck SoftHard="Soft" def:ItemOID="IT.LB.LBTESTCD" Comparator="EQ">
               <CheckValue>OBILDIR</CheckValue>
            </RangeCheck>
         </def:WhereClauseDef>
         <def:WhereClauseDef OID="WC.LB.LBTESTCD.EQ.OBILI">
            <RangeCheck SoftHard="Soft" def:ItemOID="IT.LB.LBTESTCD" Comparator="EQ">
               <CheckValue>OBILI</CheckValue>
            </RangeCheck>
         </def:WhereClauseDef>
         <def:WhereClauseDef OID="WC.LB.LBTESTCD.EQ.OBILIND">
            <RangeCheck SoftHard="Soft" def:ItemOID="IT.LB.LBTESTCD" Comparator="EQ">
               <CheckValue>OBILIND</CheckValue>
            </RangeCheck>
         </def:WhereClauseDef>
         <def:WhereClauseDef OID="WC.LB.LBTESTCD.EQ.OCL">
            <RangeCheck SoftHard="Soft" def:ItemOID="IT.LB.LBTESTCD" Comparator="EQ">
               <CheckValue>OCL</CheckValue>
            </RangeCheck>
         </def:WhereClauseDef>
         <def:WhereClauseDef OID="WC.LB.LBTESTCD.EQ.OHBSAG1">
            <RangeCheck SoftHard="Soft" def:ItemOID="IT.LB.LBTESTCD" Comparator="EQ">
               <CheckValue>OHBSAG1</CheckValue>
            </RangeCheck>
         </def:WhereClauseDef>
         <def:WhereClauseDef OID="WC.LB.LBTESTCD.EQ.OHBSAG2">
            <RangeCheck SoftHard="Soft" def:ItemOID="IT.LB.LBTESTCD" Comparator="EQ">
               <CheckValue>OHBSAG2</CheckValue>
            </RangeCheck>
         </def:WhereClauseDef>
         <def:WhereClauseDef OID="WC.LB.LBTESTCD.EQ.OHGB">
            <RangeCheck SoftHard="Soft" def:ItemOID="IT.LB.LBTESTCD" Comparator="EQ">
               <CheckValue>OHGB</CheckValue>
            </RangeCheck>
         </def:WhereClauseDef>
         <def:WhereClauseDef OID="WC.LB.LBTESTCD.EQ.ONA">
            <RangeCheck SoftHard="Soft" def:ItemOID="IT.LB.LBTESTCD" Comparator="EQ">
               <CheckValue>ONA</CheckValue>
            </RangeCheck>
         </def:WhereClauseDef>
         <def:WhereClauseDef OID="WC.LB.LBTESTCD.EQ.ONONHDL">
            <RangeCheck SoftHard="Soft" def:ItemOID="IT.LB.LBTESTCD" Comparator="EQ">
               <CheckValue>ONONHDL</CheckValue>
            </RangeCheck>
         </def:WhereClauseDef>
         <def:WhereClauseDef OID="WC.LB.LBTESTCD.EQ.ORBC">
            <RangeCheck SoftHard="Soft" def:ItemOID="IT.LB.LBTESTCD" Comparator="EQ">
               <CheckValue>ORBC</CheckValue>
            </RangeCheck>
         </def:WhereClauseDef>
         <def:WhereClauseDef OID="WC.LB.LBTESTCD.EQ.OTH">
            <RangeCheck SoftHard="Soft" def:ItemOID="IT.LB.LBTESTCD" Comparator="EQ">
               <CheckValue>OTH</CheckValue>
            </RangeCheck>
         </def:WhereClauseDef>
         <def:WhereClauseDef OID="WC.LB.LBTESTCD.EQ.OVLDL">
            <RangeCheck SoftHard="Soft" def:ItemOID="IT.LB.LBTESTCD" Comparator="EQ">
               <CheckValue>OVLDL</CheckValue>
            </RangeCheck>
         </def:WhereClauseDef>
         <def:WhereClauseDef OID="WC.LB.LBTESTCD.EQ.P">
            <RangeCheck SoftHard="Soft" def:ItemOID="IT.LB.LBTESTCD" Comparator="EQ">
               <CheckValue>P</CheckValue>
            </RangeCheck>
         </def:WhereClauseDef>
         <def:WhereClauseDef OID="WC.LB.LBTESTCD.EQ.PE">
            <RangeCheck SoftHard="Soft" def:ItemOID="IT.LB.LBTESTCD" Comparator="EQ">
               <CheckValue>PE</CheckValue>
            </RangeCheck>
         </def:WhereClauseDef>
         <def:WhereClauseDef OID="WC.LB.LBTESTCD.EQ.PH">
            <RangeCheck SoftHard="Soft" def:ItemOID="IT.LB.LBTESTCD" Comparator="EQ">
               <CheckValue>PH</CheckValue>
            </RangeCheck>
         </def:WhereClauseDef>
         <def:WhereClauseDef OID="WC.LB.LBTESTCD.EQ.PIPR">
            <RangeCheck SoftHard="Soft" def:ItemOID="IT.LB.LBTESTCD" Comparator="EQ">
               <CheckValue>PIPR</CheckValue>
            </RangeCheck>
         </def:WhereClauseDef>
         <def:WhereClauseDef OID="WC.LB.LBTESTCD.EQ.PLT">
            <RangeCheck SoftHard="Soft" def:ItemOID="IT.LB.LBTESTCD" Comparator="EQ">
               <CheckValue>PLT</CheckValue>
            </RangeCheck>
         </def:WhereClauseDef>
         <def:WhereClauseDef OID="WC.LB.LBTESTCD.EQ.PROG">
            <RangeCheck SoftHard="Soft" def:ItemOID="IT.LB.LBTESTCD" Comparator="EQ">
               <CheckValue>PROG</CheckValue>
            </RangeCheck>
         </def:WhereClauseDef>
         <def:WhereClauseDef OID="WC.LB.LBTESTCD.EQ.PROT">
            <RangeCheck SoftHard="Soft" def:ItemOID="IT.LB.LBTESTCD" Comparator="EQ">
               <CheckValue>PROT</CheckValue>
            </RangeCheck>
         </def:WhereClauseDef>
         <def:WhereClauseDef OID="WC.LB.LBTESTCD.EQ.PT">
            <RangeCheck SoftHard="Soft" def:ItemOID="IT.LB.LBTESTCD" Comparator="EQ">
               <CheckValue>PT</CheckValue>
            </RangeCheck>
         </def:WhereClauseDef>
         <def:WhereClauseDef OID="WC.LB.LBTESTCD.EQ.RBC">
            <RangeCheck SoftHard="Soft" def:ItemOID="IT.LB.LBTESTCD" Comparator="EQ">
               <CheckValue>RBC</CheckValue>
            </RangeCheck>
         </def:WhereClauseDef>
         <def:WhereClauseDef OID="WC.LB.LBTESTCD.EQ.RT3">
            <RangeCheck SoftHard="Soft" def:ItemOID="IT.LB.LBTESTCD" Comparator="EQ">
               <CheckValue>RT3</CheckValue>
            </RangeCheck>
         </def:WhereClauseDef>
         <def:WhereClauseDef OID="WC.LB.LBTESTCD.EQ.T3FR">
            <RangeCheck SoftHard="Soft" def:ItemOID="IT.LB.LBTESTCD" Comparator="EQ">
               <CheckValue>T3FR</CheckValue>
            </RangeCheck>
         </def:WhereClauseDef>
         <def:WhereClauseDef OID="WC.LB.LBTESTCD.EQ.TCHO">
            <RangeCheck SoftHard="Soft" def:ItemOID="IT.LB.LBTESTCD" Comparator="EQ">
               <CheckValue>TCHO</CheckValue>
            </RangeCheck>
         </def:WhereClauseDef>
         <def:WhereClauseDef OID="WC.LB.LBTESTCD.EQ.TCO2">
            <RangeCheck SoftHard="Soft" def:ItemOID="IT.LB.LBTESTCD" Comparator="EQ">
               <CheckValue>TCO2</CheckValue>
            </RangeCheck>
         </def:WhereClauseDef>
         <def:WhereClauseDef OID="WC.LB.LBTESTCD.EQ.TI">
            <RangeCheck SoftHard="Soft" def:ItemOID="IT.LB.LBTESTCD" Comparator="EQ">
               <CheckValue>TI</CheckValue>
            </RangeCheck>
         </def:WhereClauseDef>
         <def:WhereClauseDef OID="WC.LB.LBTESTCD.EQ.TNFA">
            <RangeCheck SoftHard="Soft" def:ItemOID="IT.LB.LBTESTCD" Comparator="EQ">
               <CheckValue>TNFA</CheckValue>
            </RangeCheck>
         </def:WhereClauseDef>
         <def:WhereClauseDef OID="WC.LB.LBTESTCD.EQ.TOST">
            <RangeCheck SoftHard="Soft" def:ItemOID="IT.LB.LBTESTCD" Comparator="EQ">
               <CheckValue>TOST</CheckValue>
            </RangeCheck>
         </def:WhereClauseDef>
         <def:WhereClauseDef OID="WC.LB.LBTESTCD.EQ.TP">
            <RangeCheck SoftHard="Soft" def:ItemOID="IT.LB.LBTESTCD" Comparator="EQ">
               <CheckValue>TP</CheckValue>
            </RangeCheck>
         </def:WhereClauseDef>
         <def:WhereClauseDef OID="WC.LB.LBTESTCD.EQ.TRIG">
            <RangeCheck SoftHard="Soft" def:ItemOID="IT.LB.LBTESTCD" Comparator="EQ">
               <CheckValue>TRIG</CheckValue>
            </RangeCheck>
         </def:WhereClauseDef>
         <def:WhereClauseDef OID="WC.LB.LBTESTCD.EQ.TSH">
            <RangeCheck SoftHard="Soft" def:ItemOID="IT.LB.LBTESTCD" Comparator="EQ">
               <CheckValue>TSH</CheckValue>
            </RangeCheck>
         </def:WhereClauseDef>
         <def:WhereClauseDef OID="WC.LB.LBTESTCD.EQ.UA">
            <RangeCheck SoftHard="Soft" def:ItemOID="IT.LB.LBTESTCD" Comparator="EQ">
               <CheckValue>UA</CheckValue>
            </RangeCheck>
         </def:WhereClauseDef>
         <def:WhereClauseDef OID="WC.LB.LBTESTCD.EQ.UBILI">
            <RangeCheck SoftHard="Soft" def:ItemOID="IT.LB.LBTESTCD" Comparator="EQ">
               <CheckValue>UBILI</CheckValue>
            </RangeCheck>
         </def:WhereClauseDef>
         <def:WhereClauseDef OID="WC.LB.LBTESTCD.EQ.UCRYSTA">
            <RangeCheck SoftHard="Soft" def:ItemOID="IT.LB.LBTESTCD" Comparator="EQ">
               <CheckValue>UCRYSTA</CheckValue>
            </RangeCheck>
         </def:WhereClauseDef>
         <def:WhereClauseDef OID="WC.LB.LBTESTCD.EQ.UERCE">
            <RangeCheck SoftHard="Soft" def:ItemOID="IT.LB.LBTESTCD" Comparator="EQ">
               <CheckValue>UERCE</CheckValue>
            </RangeCheck>
         </def:WhereClauseDef>
         <def:WhereClauseDef OID="WC.LB.LBTESTCD.EQ.UGLUC">
            <RangeCheck SoftHard="Soft" def:ItemOID="IT.LB.LBTESTCD" Comparator="EQ">
               <CheckValue>UGLUC</CheckValue>
            </RangeCheck>
         </def:WhereClauseDef>
         <def:WhereClauseDef OID="WC.LB.LBTESTCD.EQ.UKET">
            <RangeCheck SoftHard="Soft" def:ItemOID="IT.LB.LBTESTCD" Comparator="EQ">
               <CheckValue>UKET</CheckValue>
            </RangeCheck>
         </def:WhereClauseDef>
         <def:WhereClauseDef OID="WC.LB.LBTESTCD.EQ.ULEU">
            <RangeCheck SoftHard="Soft" def:ItemOID="IT.LB.LBTESTCD" Comparator="EQ">
               <CheckValue>ULEU</CheckValue>
            </RangeCheck>
         </def:WhereClauseDef>
         <def:WhereClauseDef OID="WC.LB.LBTESTCD.EQ.UOCCBLD">
            <RangeCheck SoftHard="Soft" def:ItemOID="IT.LB.LBTESTCD" Comparator="EQ">
               <CheckValue>UOCCBLD</CheckValue>
            </RangeCheck>
         </def:WhereClauseDef>
         <def:WhereClauseDef OID="WC.LB.LBTESTCD.EQ.UPROT">
            <RangeCheck SoftHard="Soft" def:ItemOID="IT.LB.LBTESTCD" Comparator="EQ">
               <CheckValue>UPROT</CheckValue>
            </RangeCheck>
         </def:WhereClauseDef>
         <def:WhereClauseDef OID="WC.LB.LBTESTCD.EQ.UROBIL">
            <RangeCheck SoftHard="Soft" def:ItemOID="IT.LB.LBTESTCD" Comparator="EQ">
               <CheckValue>UROBIL</CheckValue>
            </RangeCheck>
         </def:WhereClauseDef>
         <def:WhereClauseDef OID="WC.LB.LBTESTCD.EQ.VLDL">
            <RangeCheck SoftHard="Soft" def:ItemOID="IT.LB.LBTESTCD" Comparator="EQ">
               <CheckValue>VLDL</CheckValue>
            </RangeCheck>
         </def:WhereClauseDef>
         <def:WhereClauseDef OID="WC.LB.LBTESTCD.EQ.WBC">
            <RangeCheck SoftHard="Soft" def:ItemOID="IT.LB.LBTESTCD" Comparator="EQ">
               <CheckValue>WBC</CheckValue>
            </RangeCheck>
         </def:WhereClauseDef>
         <def:WhereClauseDef OID="WC.PC.PCTESTCD.EQ.CD4">
            <RangeCheck SoftHard="Soft" def:ItemOID="IT.PC.PCTESTCD" Comparator="EQ">
               <CheckValue>CD4</CheckValue>
            </RangeCheck>
         </def:WhereClauseDef>
         <def:WhereClauseDef OID="WC.PC.PCTESTCD.EQ.CD4/CD8">
            <RangeCheck SoftHard="Soft" def:ItemOID="IT.PC.PCTESTCD" Comparator="EQ">
               <CheckValue>CD4/CD8</CheckValue>
            </RangeCheck>
         </def:WhereClauseDef>
         <def:WhereClauseDef OID="WC.PC.PCTESTCD.EQ.CD8">
            <RangeCheck SoftHard="Soft" def:ItemOID="IT.PC.PCTESTCD" Comparator="EQ">
               <CheckValue>CD8</CheckValue>
            </RangeCheck>
         </def:WhereClauseDef>
         <def:WhereClauseDef OID="WC.PC.PCTESTCD.EQ.IL_6">
            <RangeCheck SoftHard="Soft" def:ItemOID="IT.PC.PCTESTCD" Comparator="EQ">
               <CheckValue>IL_6</CheckValue>
            </RangeCheck>
         </def:WhereClauseDef>
         <def:WhereClauseDef OID="WC.PC.PCTESTCD.EQ.MR001">
            <RangeCheck SoftHard="Soft" def:ItemOID="IT.PC.PCTESTCD" Comparator="EQ">
               <CheckValue>MR001</CheckValue>
            </RangeCheck>
         </def:WhereClauseDef>
         <def:WhereClauseDef OID="WC.PC.PCTESTCD.EQ.RECOCC">
            <RangeCheck SoftHard="Soft" def:ItemOID="IT.PC.PCTESTCD" Comparator="EQ">
               <CheckValue>RECOCC</CheckValue>
            </RangeCheck>
         </def:WhereClauseDef>
         <def:WhereClauseDef OID="WC.PC.PCTESTCD.EQ.TGF_B1">
            <RangeCheck SoftHard="Soft" def:ItemOID="IT.PC.PCTESTCD" Comparator="EQ">
               <CheckValue>TGF_B1</CheckValue>
            </RangeCheck>
         </def:WhereClauseDef>
         <def:WhereClauseDef OID="WC.PC.PCTESTCD.EQ.TH1">
            <RangeCheck SoftHard="Soft" def:ItemOID="IT.PC.PCTESTCD" Comparator="EQ">
               <CheckValue>TH1</CheckValue>
            </RangeCheck>
         </def:WhereClauseDef>
         <def:WhereClauseDef OID="WC.PC.PCTESTCD.EQ.TH2">
            <RangeCheck SoftHard="Soft" def:ItemOID="IT.PC.PCTESTCD" Comparator="EQ">
               <CheckValue>TH2</CheckValue>
            </RangeCheck>
         </def:WhereClauseDef>
         <def:WhereClauseDef OID="WC.PC.PCTESTCD.EQ.TH17">
            <RangeCheck SoftHard="Soft" def:ItemOID="IT.PC.PCTESTCD" Comparator="EQ">
               <CheckValue>TH17</CheckValue>
            </RangeCheck>
         </def:WhereClauseDef>
         <def:WhereClauseDef OID="WC.PC.PCTESTCD.EQ.TNF_A">
            <RangeCheck SoftHard="Soft" def:ItemOID="IT.PC.PCTESTCD" Comparator="EQ">
               <CheckValue>TNF_A</CheckValue>
            </RangeCheck>
         </def:WhereClauseDef>
         <def:WhereClauseDef OID="WC.PC.PCTESTCD.EQ.TREG">
            <RangeCheck SoftHard="Soft" def:ItemOID="IT.PC.PCTESTCD" Comparator="EQ">
               <CheckValue>TREG</CheckValue>
            </RangeCheck>
         </def:WhereClauseDef>
         <def:WhereClauseDef OID="WC.PE.PETESTCD.EQ.ABDO">
            <RangeCheck SoftHard="Soft" def:ItemOID="IT.PE.PETESTCD" Comparator="EQ">
               <CheckValue>ABDO</CheckValue>
            </RangeCheck>
         </def:WhereClauseDef>
         <def:WhereClauseDef OID="WC.PE.PETESTCD.EQ.HE">
            <RangeCheck SoftHard="Soft" def:ItemOID="IT.PE.PETESTCD" Comparator="EQ">
               <CheckValue>HE</CheckValue>
            </RangeCheck>
         </def:WhereClauseDef>
         <def:WhereClauseDef OID="WC.PE.PETESTCD.EQ.LN">
            <RangeCheck SoftHard="Soft" def:ItemOID="IT.PE.PETESTCD" Comparator="EQ">
               <CheckValue>LN</CheckValue>
            </RangeCheck>
         </def:WhereClauseDef>
         <def:WhereClauseDef OID="WC.PE.PETESTCD.EQ.MUSC">
            <RangeCheck SoftHard="Soft" def:ItemOID="IT.PE.PETESTCD" Comparator="EQ">
               <CheckValue>MUSC</CheckValue>
            </RangeCheck>
         </def:WhereClauseDef>
         <def:WhereClauseDef OID="WC.PE.PETESTCD.EQ.NE">
            <RangeCheck SoftHard="Soft" def:ItemOID="IT.PE.PETESTCD" Comparator="EQ">
               <CheckValue>NE</CheckValue>
            </RangeCheck>
         </def:WhereClauseDef>
         <def:WhereClauseDef OID="WC.PE.PETESTCD.EQ.NEPS">
            <RangeCheck SoftHard="Soft" def:ItemOID="IT.PE.PETESTCD" Comparator="EQ">
               <CheckValue>NEPS</CheckValue>
            </RangeCheck>
         </def:WhereClauseDef>
         <def:WhereClauseDef OID="WC.PE.PETESTCD.EQ.PEOTH">
            <RangeCheck SoftHard="Soft" def:ItemOID="IT.PE.PETESTCD" Comparator="EQ">
               <CheckValue>PEOTH</CheckValue>
            </RangeCheck>
         </def:WhereClauseDef>
         <def:WhereClauseDef OID="WC.PE.PETESTCD.EQ.SKIN">
            <RangeCheck SoftHard="Soft" def:ItemOID="IT.PE.PETESTCD" Comparator="EQ">
               <CheckValue>SKIN</CheckValue>
            </RangeCheck>
         </def:WhereClauseDef>
         <def:WhereClauseDef OID="WC.PE.PETESTCD.EQ.THOR">
            <RangeCheck SoftHard="Soft" def:ItemOID="IT.PE.PETESTCD" Comparator="EQ">
               <CheckValue>THOR</CheckValue>
            </RangeCheck>
         </def:WhereClauseDef>
         <def:WhereClauseDef OID="WC.PP.PPTESTCD.EQ.AUCIFO">
            <RangeCheck SoftHard="Soft" def:ItemOID="IT.PP.PPTESTCD" Comparator="EQ">
               <CheckValue>AUCIFO</CheckValue>
            </RangeCheck>
         </def:WhereClauseDef>
         <def:WhereClauseDef OID="WC.PP.PPTESTCD.EQ.AUCLST">
            <RangeCheck SoftHard="Soft" def:ItemOID="IT.PP.PPTESTCD" Comparator="EQ">
               <CheckValue>AUCLST</CheckValue>
            </RangeCheck>
         </def:WhereClauseDef>
         <def:WhereClauseDef OID="WC.PP.PPTESTCD.EQ.AUCPEO">
            <RangeCheck SoftHard="Soft" def:ItemOID="IT.PP.PPTESTCD" Comparator="EQ">
               <CheckValue>AUCPEO</CheckValue>
            </RangeCheck>
         </def:WhereClauseDef>
         <def:WhereClauseDef OID="WC.PP.PPTESTCD.EQ.CLFO">
            <RangeCheck SoftHard="Soft" def:ItemOID="IT.PP.PPTESTCD" Comparator="EQ">
               <CheckValue>CLFO</CheckValue>
            </RangeCheck>
         </def:WhereClauseDef>
         <def:WhereClauseDef OID="WC.PP.PPTESTCD.EQ.CMAX">
            <RangeCheck SoftHard="Soft" def:ItemOID="IT.PP.PPTESTCD" Comparator="EQ">
               <CheckValue>CMAX</CheckValue>
            </RangeCheck>
         </def:WhereClauseDef>
         <def:WhereClauseDef OID="WC.PP.PPTESTCD.EQ.LAMZHL">
            <RangeCheck SoftHard="Soft" def:ItemOID="IT.PP.PPTESTCD" Comparator="EQ">
               <CheckValue>LAMZHL</CheckValue>
            </RangeCheck>
         </def:WhereClauseDef>
         <def:WhereClauseDef OID="WC.PP.PPTESTCD.EQ.RACAUC">
            <RangeCheck SoftHard="Soft" def:ItemOID="IT.PP.PPTESTCD" Comparator="EQ">
               <CheckValue>RACAUC</CheckValue>
            </RangeCheck>
         </def:WhereClauseDef>
         <def:WhereClauseDef OID="WC.PP.PPTESTCD.EQ.RACCMAX">
            <RangeCheck SoftHard="Soft" def:ItemOID="IT.PP.PPTESTCD" Comparator="EQ">
               <CheckValue>RACCMAX</CheckValue>
            </RangeCheck>
         </def:WhereClauseDef>
         <def:WhereClauseDef OID="WC.PP.PPTESTCD.EQ.TMAX">
            <RangeCheck SoftHard="Soft" def:ItemOID="IT.PP.PPTESTCD" Comparator="EQ">
               <CheckValue>TMAX</CheckValue>
            </RangeCheck>
         </def:WhereClauseDef>
         <def:WhereClauseDef OID="WC.PP.PPTESTCD.EQ.VZFO">
            <RangeCheck SoftHard="Soft" def:ItemOID="IT.PP.PPTESTCD" Comparator="EQ">
               <CheckValue>VZFO</CheckValue>
            </RangeCheck>
         </def:WhereClauseDef>
         <def:WhereClauseDef OID="WC.SUPPAE.QNAM.EQ.AEACT">
            <RangeCheck SoftHard="Soft" def:ItemOID="IT.SUPPAE.QNAM" Comparator="EQ">
               <CheckValue>AEACT</CheckValue>
            </RangeCheck>
         </def:WhereClauseDef>
         <def:WhereClauseDef OID="WC.SUPPAE.QNAM.EQ.AEACTOTH">
            <RangeCheck SoftHard="Soft" def:ItemOID="IT.SUPPAE.QNAM" Comparator="EQ">
               <CheckValue>AEACTOTH</CheckValue>
            </RangeCheck>
         </def:WhereClauseDef>
         <def:WhereClauseDef OID="WC.SUPPAE.QNAM.EQ.AECMNO">
            <RangeCheck SoftHard="Soft" def:ItemOID="IT.SUPPAE.QNAM" Comparator="EQ">
               <CheckValue>AECMNO</CheckValue>
            </RangeCheck>
         </def:WhereClauseDef>
         <def:WhereClauseDef OID="WC.SUPPAE.QNAM.EQ.AEDIS">
            <RangeCheck SoftHard="Soft" def:ItemOID="IT.SUPPAE.QNAM" Comparator="EQ">
               <CheckValue>AEDIS</CheckValue>
            </RangeCheck>
         </def:WhereClauseDef>
         <def:WhereClauseDef OID="WC.SUPPAE.QNAM.EQ.AEIMP">
            <RangeCheck SoftHard="Soft" def:ItemOID="IT.SUPPAE.QNAM" Comparator="EQ">
               <CheckValue>AEIMP</CheckValue>
            </RangeCheck>
         </def:WhereClauseDef>
         <def:WhereClauseDef OID="WC.SUPPAE.QNAM.EQ.AEIRYN">
            <RangeCheck SoftHard="Soft" def:ItemOID="IT.SUPPAE.QNAM" Comparator="EQ">
               <CheckValue>AEIRYN</CheckValue>
            </RangeCheck>
         </def:WhereClauseDef>
         <def:WhereClauseDef OID="WC.SUPPAE.QNAM.EQ.AEPRNO">
            <RangeCheck SoftHard="Soft" def:ItemOID="IT.SUPPAE.QNAM" Comparator="EQ">
               <CheckValue>AEPRNO</CheckValue>
            </RangeCheck>
         </def:WhereClauseDef>
         <def:WhereClauseDef OID="WC.SUPPAE.QNAM.EQ.AETRTEM">
            <RangeCheck SoftHard="Soft" def:ItemOID="IT.SUPPAE.QNAM" Comparator="EQ">
               <CheckValue>AETRTEM</CheckValue>
            </RangeCheck>
         </def:WhereClauseDef>
         <def:WhereClauseDef OID="WC.SUPPAE.QNAM.EQ.AEYN">
            <RangeCheck SoftHard="Soft" def:ItemOID="IT.SUPPAE.QNAM" Comparator="EQ">
               <CheckValue>AEYN</CheckValue>
            </RangeCheck>
         </def:WhereClauseDef>
         <def:WhereClauseDef OID="WC.SUPPAE.QNAM.EQ.DICNAME">
            <RangeCheck SoftHard="Soft" def:ItemOID="IT.SUPPAE.QNAM" Comparator="EQ">
               <CheckValue>DICNAME</CheckValue>
            </RangeCheck>
         </def:WhereClauseDef>
         <def:WhereClauseDef OID="WC.SUPPAE.QNAM.EQ.DICVER">
            <RangeCheck SoftHard="Soft" def:ItemOID="IT.SUPPAE.QNAM" Comparator="EQ">
               <CheckValue>DICVER</CheckValue>
            </RangeCheck>
         </def:WhereClauseDef>
         <def:WhereClauseDef OID="WC.SUPPCM.QNAM.EQ.ATC1">
            <RangeCheck SoftHard="Soft" def:ItemOID="IT.SUPPCM.QNAM" Comparator="EQ">
               <CheckValue>ATC1</CheckValue>
            </RangeCheck>
         </def:WhereClauseDef>
         <def:WhereClauseDef OID="WC.SUPPCM.QNAM.EQ.ATC1CD">
            <RangeCheck SoftHard="Soft" def:ItemOID="IT.SUPPCM.QNAM" Comparator="EQ">
               <CheckValue>ATC1CD</CheckValue>
            </RangeCheck>
         </def:WhereClauseDef>
         <def:WhereClauseDef OID="WC.SUPPCM.QNAM.EQ.ATC2">
            <RangeCheck SoftHard="Soft" def:ItemOID="IT.SUPPCM.QNAM" Comparator="EQ">
               <CheckValue>ATC2</CheckValue>
            </RangeCheck>
         </def:WhereClauseDef>
         <def:WhereClauseDef OID="WC.SUPPCM.QNAM.EQ.ATC2CD">
            <RangeCheck SoftHard="Soft" def:ItemOID="IT.SUPPCM.QNAM" Comparator="EQ">
               <CheckValue>ATC2CD</CheckValue>
            </RangeCheck>
         </def:WhereClauseDef>
         <def:WhereClauseDef OID="WC.SUPPCM.QNAM.EQ.ATC3">
            <RangeCheck SoftHard="Soft" def:ItemOID="IT.SUPPCM.QNAM" Comparator="EQ">
               <CheckValue>ATC3</CheckValue>
            </RangeCheck>
         </def:WhereClauseDef>
         <def:WhereClauseDef OID="WC.SUPPCM.QNAM.EQ.ATC3CD">
            <RangeCheck SoftHard="Soft" def:ItemOID="IT.SUPPCM.QNAM" Comparator="EQ">
               <CheckValue>ATC3CD</CheckValue>
            </RangeCheck>
         </def:WhereClauseDef>
         <def:WhereClauseDef OID="WC.SUPPCM.QNAM.EQ.ATC4">
            <RangeCheck SoftHard="Soft" def:ItemOID="IT.SUPPCM.QNAM" Comparator="EQ">
               <CheckValue>ATC4</CheckValue>
            </RangeCheck>
         </def:WhereClauseDef>
         <def:WhereClauseDef OID="WC.SUPPCM.QNAM.EQ.ATC4CD">
            <RangeCheck SoftHard="Soft" def:ItemOID="IT.SUPPCM.QNAM" Comparator="EQ">
               <CheckValue>ATC4CD</CheckValue>
            </RangeCheck>
         </def:WhereClauseDef>
         <def:WhereClauseDef OID="WC.SUPPCM.QNAM.EQ.CMAENO">
            <RangeCheck SoftHard="Soft" def:ItemOID="IT.SUPPCM.QNAM" Comparator="EQ">
               <CheckValue>CMAENO</CheckValue>
            </RangeCheck>
         </def:WhereClauseDef>
         <def:WhereClauseDef OID="WC.SUPPCM.QNAM.EQ.CMBO">
            <RangeCheck SoftHard="Soft" def:ItemOID="IT.SUPPCM.QNAM" Comparator="EQ">
               <CheckValue>CMBO</CheckValue>
            </RangeCheck>
         </def:WhereClauseDef>
         <def:WhereClauseDef OID="WC.SUPPCM.QNAM.EQ.CMDOSFRO">
            <RangeCheck SoftHard="Soft" def:ItemOID="IT.SUPPCM.QNAM" Comparator="EQ">
               <CheckValue>CMDOSFRO</CheckValue>
            </RangeCheck>
         </def:WhereClauseDef>
         <def:WhereClauseDef OID="WC.SUPPCM.QNAM.EQ.CMDOSUO">
            <RangeCheck SoftHard="Soft" def:ItemOID="IT.SUPPCM.QNAM" Comparator="EQ">
               <CheckValue>CMDOSUO</CheckValue>
            </RangeCheck>
         </def:WhereClauseDef>
         <def:WhereClauseDef OID="WC.SUPPCM.QNAM.EQ.CMINDCO">
            <RangeCheck SoftHard="Soft" def:ItemOID="IT.SUPPCM.QNAM" Comparator="EQ">
               <CheckValue>CMINDCO</CheckValue>
            </RangeCheck>
         </def:WhereClauseDef>
         <def:WhereClauseDef OID="WC.SUPPCM.QNAM.EQ.CMLOC">
            <RangeCheck SoftHard="Soft" def:ItemOID="IT.SUPPCM.QNAM" Comparator="EQ">
               <CheckValue>CMLOC</CheckValue>
            </RangeCheck>
         </def:WhereClauseDef>
         <def:WhereClauseDef OID="WC.SUPPCM.QNAM.EQ.CMMHNO">
            <RangeCheck SoftHard="Soft" def:ItemOID="IT.SUPPCM.QNAM" Comparator="EQ">
               <CheckValue>CMMHNO</CheckValue>
            </RangeCheck>
         </def:WhereClauseDef>
         <def:WhereClauseDef OID="WC.SUPPCM.QNAM.EQ.CMONGO">
            <RangeCheck SoftHard="Soft" def:ItemOID="IT.SUPPCM.QNAM" Comparator="EQ">
               <CheckValue>CMONGO</CheckValue>
            </RangeCheck>
         </def:WhereClauseDef>
         <def:WhereClauseDef OID="WC.SUPPCM.QNAM.EQ.CMPG">
            <RangeCheck SoftHard="Soft" def:ItemOID="IT.SUPPCM.QNAM" Comparator="EQ">
               <CheckValue>CMPG</CheckValue>
            </RangeCheck>
         </def:WhereClauseDef>
         <def:WhereClauseDef OID="WC.SUPPCM.QNAM.EQ.CMROUOTH">
            <RangeCheck SoftHard="Soft" def:ItemOID="IT.SUPPCM.QNAM" Comparator="EQ">
               <CheckValue>CMROUOTH</CheckValue>
            </RangeCheck>
         </def:WhereClauseDef>
         <def:WhereClauseDef OID="WC.SUPPCM.QNAM.EQ.CMSPID">
            <RangeCheck SoftHard="Soft" def:ItemOID="IT.SUPPCM.QNAM" Comparator="EQ">
               <CheckValue>CMSPID</CheckValue>
            </RangeCheck>
         </def:WhereClauseDef>
         <def:WhereClauseDef OID="WC.SUPPCM.QNAM.EQ.CTHTP">
            <RangeCheck SoftHard="Soft" def:ItemOID="IT.SUPPCM.QNAM" Comparator="EQ">
               <CheckValue>CTHTP</CheckValue>
            </RangeCheck>
         </def:WhereClauseDef>
         <def:WhereClauseDef OID="WC.SUPPCM.QNAM.EQ.CTHTPOTH">
            <RangeCheck SoftHard="Soft" def:ItemOID="IT.SUPPCM.QNAM" Comparator="EQ">
               <CheckValue>CTHTPOTH</CheckValue>
            </RangeCheck>
         </def:WhereClauseDef>
         <def:WhereClauseDef OID="WC.SUPPCM.QNAM.EQ.DICVER">
            <RangeCheck SoftHard="Soft" def:ItemOID="IT.SUPPCM.QNAM" Comparator="EQ">
               <CheckValue>DICVER</CheckValue>
            </RangeCheck>
         </def:WhereClauseDef>
         <def:WhereClauseDef OID="WC.SUPPDM.QNAM.EQ.ARMNRS">
            <RangeCheck SoftHard="Soft" def:ItemOID="IT.SUPPDM.QNAM" Comparator="EQ">
               <CheckValue>ARMNRS</CheckValue>
            </RangeCheck>
         </def:WhereClauseDef>
         <def:WhereClauseDef OID="WC.SUPPDM.QNAM.EQ.CHBEYN">
            <RangeCheck SoftHard="Soft" def:ItemOID="IT.SUPPDM.QNAM" Comparator="EQ">
               <CheckValue>CHBEYN</CheckValue>
            </RangeCheck>
         </def:WhereClauseDef>
         <def:WhereClauseDef OID="WC.SUPPDM.QNAM.EQ.DLTYN">
            <RangeCheck SoftHard="Soft" def:ItemOID="IT.SUPPDM.QNAM" Comparator="EQ">
               <CheckValue>DLTYN</CheckValue>
            </RangeCheck>
         </def:WhereClauseDef>
         <def:WhereClauseDef OID="WC.SUPPDM.QNAM.EQ.DSDECOD">
            <RangeCheck SoftHard="Soft" def:ItemOID="IT.SUPPDM.QNAM" Comparator="EQ">
               <CheckValue>DSDECOD</CheckValue>
            </RangeCheck>
         </def:WhereClauseDef>
         <def:WhereClauseDef OID="WC.SUPPDM.QNAM.EQ.DSDTC">
            <RangeCheck SoftHard="Soft" def:ItemOID="IT.SUPPDM.QNAM" Comparator="EQ">
               <CheckValue>DSDTC</CheckValue>
            </RangeCheck>
         </def:WhereClauseDef>
         <def:WhereClauseDef OID="WC.SUPPDM.QNAM.EQ.DSOTH">
            <RangeCheck SoftHard="Soft" def:ItemOID="IT.SUPPDM.QNAM" Comparator="EQ">
               <CheckValue>DSOTH</CheckValue>
            </RangeCheck>
         </def:WhereClauseDef>
         <def:WhereClauseDef OID="WC.SUPPDM.QNAM.EQ.DSYN">
            <RangeCheck SoftHard="Soft" def:ItemOID="IT.SUPPDM.QNAM" Comparator="EQ">
               <CheckValue>DSYN</CheckValue>
            </RangeCheck>
         </def:WhereClauseDef>
         <def:WhereClauseDef OID="WC.SUPPDM.QNAM.EQ.DTHREA">
            <RangeCheck SoftHard="Soft" def:ItemOID="IT.SUPPDM.QNAM" Comparator="EQ">
               <CheckValue>DTHREA</CheckValue>
            </RangeCheck>
         </def:WhereClauseDef>
         <def:WhereClauseDef OID="WC.SUPPDM.QNAM.EQ.ETHNICOT">
            <RangeCheck SoftHard="Soft" def:ItemOID="IT.SUPPDM.QNAM" Comparator="EQ">
               <CheckValue>ETHNICOT</CheckValue>
            </RangeCheck>
         </def:WhereClauseDef>
         <def:WhereClauseDef OID="WC.SUPPDM.QNAM.EQ.RANDDT">
            <RangeCheck SoftHard="Soft" def:ItemOID="IT.SUPPDM.QNAM" Comparator="EQ">
               <CheckValue>RANDDT</CheckValue>
            </RangeCheck>
         </def:WhereClauseDef>
         <def:WhereClauseDef OID="WC.SUPPDM.QNAM.EQ.SCRREA">
            <RangeCheck SoftHard="Soft" def:ItemOID="IT.SUPPDM.QNAM" Comparator="EQ">
               <CheckValue>SCRREA</CheckValue>
            </RangeCheck>
         </def:WhereClauseDef>
         <def:WhereClauseDef OID="WC.SUPPDM.QNAM.EQ.SCRSPEC">
            <RangeCheck SoftHard="Soft" def:ItemOID="IT.SUPPDM.QNAM" Comparator="EQ">
               <CheckValue>SCRSPEC</CheckValue>
            </RangeCheck>
         </def:WhereClauseDef>
         <def:WhereClauseDef OID="WC.SUPPDM.QNAM.EQ.STATUS">
            <RangeCheck SoftHard="Soft" def:ItemOID="IT.SUPPDM.QNAM" Comparator="EQ">
               <CheckValue>STATUS</CheckValue>
            </RangeCheck>
         </def:WhereClauseDef>
         <def:WhereClauseDef OID="WC.SUPPDM.QNAM.EQ.STATUSE">
            <RangeCheck SoftHard="Soft" def:ItemOID="IT.SUPPDM.QNAM" Comparator="EQ">
               <CheckValue>STATUSE</CheckValue>
            </RangeCheck>
         </def:WhereClauseDef>
         <def:WhereClauseDef OID="WC.SUPPDM.QNAM.EQ.TESTNUM">
            <RangeCheck SoftHard="Soft" def:ItemOID="IT.SUPPDM.QNAM" Comparator="EQ">
               <CheckValue>TESTNUM</CheckValue>
            </RangeCheck>
         </def:WhereClauseDef>
         <def:WhereClauseDef OID="WC.SUPPDM.QNAM.EQ.TESTNUMC">
            <RangeCheck SoftHard="Soft" def:ItemOID="IT.SUPPDM.QNAM" Comparator="EQ">
               <CheckValue>TESTNUMC</CheckValue>
            </RangeCheck>
         </def:WhereClauseDef>
         <def:WhereClauseDef OID="WC.SUPPDS.QNAM.EQ.DSOTH">
            <RangeCheck SoftHard="Soft" def:ItemOID="IT.SUPPDS.QNAM" Comparator="EQ">
               <CheckValue>DSOTH</CheckValue>
            </RangeCheck>
         </def:WhereClauseDef>
         <def:WhereClauseDef OID="WC.SUPPDV.QNAM.EQ.DVEFF">
            <RangeCheck SoftHard="Soft" def:ItemOID="IT.SUPPDV.QNAM" Comparator="EQ">
               <CheckValue>DVEFF</CheckValue>
            </RangeCheck>
         </def:WhereClauseDef>
         <def:WhereClauseDef OID="WC.SUPPDV.QNAM.EQ.DVEFF1">
            <RangeCheck SoftHard="Soft" def:ItemOID="IT.SUPPDV.QNAM" Comparator="EQ">
               <CheckValue>DVEFF1</CheckValue>
            </RangeCheck>
         </def:WhereClauseDef>
         <def:WhereClauseDef OID="WC.SUPPDV.QNAM.EQ.DVEFF2">
            <RangeCheck SoftHard="Soft" def:ItemOID="IT.SUPPDV.QNAM" Comparator="EQ">
               <CheckValue>DVEFF2</CheckValue>
            </RangeCheck>
         </def:WhereClauseDef>
         <def:WhereClauseDef OID="WC.SUPPDV.QNAM.EQ.DVREDTC">
            <RangeCheck SoftHard="Soft" def:ItemOID="IT.SUPPDV.QNAM" Comparator="EQ">
               <CheckValue>DVREDTC</CheckValue>
            </RangeCheck>
         </def:WhereClauseDef>
         <def:WhereClauseDef OID="WC.SUPPDV.QNAM.EQ.DVSEV">
            <RangeCheck SoftHard="Soft" def:ItemOID="IT.SUPPDV.QNAM" Comparator="EQ">
               <CheckValue>DVSEV</CheckValue>
            </RangeCheck>
         </def:WhereClauseDef>
         <def:WhereClauseDef OID="WC.SUPPDV.QNAM.EQ.DVSPEC">
            <RangeCheck SoftHard="Soft" def:ItemOID="IT.SUPPDV.QNAM" Comparator="EQ">
               <CheckValue>DVSPEC</CheckValue>
            </RangeCheck>
         </def:WhereClauseDef>
         <def:WhereClauseDef OID="WC.SUPPDV.QNAM.EQ.DVTERM1">
            <RangeCheck SoftHard="Soft" def:ItemOID="IT.SUPPDV.QNAM" Comparator="EQ">
               <CheckValue>DVTERM1</CheckValue>
            </RangeCheck>
         </def:WhereClauseDef>
         <def:WhereClauseDef OID="WC.SUPPDV.QNAM.EQ.DVTERM2">
            <RangeCheck SoftHard="Soft" def:ItemOID="IT.SUPPDV.QNAM" Comparator="EQ">
               <CheckValue>DVTERM2</CheckValue>
            </RangeCheck>
         </def:WhereClauseDef>
         <def:WhereClauseDef OID="WC.SUPPDV.QNAM.EQ.DVTERM3">
            <RangeCheck SoftHard="Soft" def:ItemOID="IT.SUPPDV.QNAM" Comparator="EQ">
               <CheckValue>DVTERM3</CheckValue>
            </RangeCheck>
         </def:WhereClauseDef>
         <def:WhereClauseDef OID="WC.SUPPDV.QNAM.EQ.DVTERM4">
            <RangeCheck SoftHard="Soft" def:ItemOID="IT.SUPPDV.QNAM" Comparator="EQ">
               <CheckValue>DVTERM4</CheckValue>
            </RangeCheck>
         </def:WhereClauseDef>
         <def:WhereClauseDef OID="WC.SUPPDV.QNAM.EQ.DVVISIT">
            <RangeCheck SoftHard="Soft" def:ItemOID="IT.SUPPDV.QNAM" Comparator="EQ">
               <CheckValue>DVVISIT</CheckValue>
            </RangeCheck>
         </def:WhereClauseDef>
         <def:WhereClauseDef OID="WC.SUPPDV.QNAM.EQ.SITID">
            <RangeCheck SoftHard="Soft" def:ItemOID="IT.SUPPDV.QNAM" Comparator="EQ">
               <CheckValue>SITID</CheckValue>
            </RangeCheck>
         </def:WhereClauseDef>
         <def:WhereClauseDef OID="WC.SUPPDV.QNAM.EQ.SITNAME">
            <RangeCheck SoftHard="Soft" def:ItemOID="IT.SUPPDV.QNAM" Comparator="EQ">
               <CheckValue>SITNAME</CheckValue>
            </RangeCheck>
         </def:WhereClauseDef>
         <def:WhereClauseDef OID="WC.SUPPEC.QNAM.EQ.ECPDOSE">
            <RangeCheck SoftHard="Soft" def:ItemOID="IT.SUPPEC.QNAM" Comparator="EQ">
               <CheckValue>ECPDOSE</CheckValue>
            </RangeCheck>
         </def:WhereClauseDef>
         <def:WhereClauseDef OID="WC.SUPPEC.QNAM.EQ.ECPDOSU">
            <RangeCheck SoftHard="Soft" def:ItemOID="IT.SUPPEC.QNAM" Comparator="EQ">
               <CheckValue>ECPDOSU</CheckValue>
            </RangeCheck>
         </def:WhereClauseDef>
         <def:WhereClauseDef OID="WC.SUPPEC.QNAM.EQ.VISIT">
            <RangeCheck SoftHard="Soft" def:ItemOID="IT.SUPPEC.QNAM" Comparator="EQ">
               <CheckValue>VISIT</CheckValue>
            </RangeCheck>
         </def:WhereClauseDef>
         <def:WhereClauseDef OID="WC.SUPPEC.QNAM.EQ.VISITNUM">
            <RangeCheck SoftHard="Soft" def:ItemOID="IT.SUPPEC.QNAM" Comparator="EQ">
               <CheckValue>VISITNUM</CheckValue>
            </RangeCheck>
         </def:WhereClauseDef>
         <def:WhereClauseDef OID="WC.SUPPEG.QNAM.EQ.EGLOBXFL">
            <RangeCheck SoftHard="Soft" def:ItemOID="IT.SUPPEG.QNAM" Comparator="EQ">
               <CheckValue>EGLOBXFL</CheckValue>
            </RangeCheck>
         </def:WhereClauseDef>
         <def:WhereClauseDef OID="WC.SUPPEG.QNAM.EQ.EGSPEC">
            <RangeCheck SoftHard="Soft" def:ItemOID="IT.SUPPEG.QNAM" Comparator="EQ">
               <CheckValue>EGSPEC</CheckValue>
            </RangeCheck>
         </def:WhereClauseDef>
         <def:WhereClauseDef OID="WC.SUPPEG.QNAM.EQ.EGSPEC1">
            <RangeCheck SoftHard="Soft" def:ItemOID="IT.SUPPEG.QNAM" Comparator="EQ">
               <CheckValue>EGSPEC1</CheckValue>
            </RangeCheck>
         </def:WhereClauseDef>
         <def:WhereClauseDef OID="WC.SUPPEX.QNAM.EQ.EXIRRE">
            <RangeCheck SoftHard="Soft" def:ItemOID="IT.SUPPEX.QNAM" Comparator="EQ">
               <CheckValue>EXIRRE</CheckValue>
            </RangeCheck>
         </def:WhereClauseDef>
         <def:WhereClauseDef OID="WC.SUPPEX.QNAM.EQ.EXIRYN">
            <RangeCheck SoftHard="Soft" def:ItemOID="IT.SUPPEX.QNAM" Comparator="EQ">
               <CheckValue>EXIRYN</CheckValue>
            </RangeCheck>
         </def:WhereClauseDef>
         <def:WhereClauseDef OID="WC.SUPPEX.QNAM.EQ.EXPDOSE">
            <RangeCheck SoftHard="Soft" def:ItemOID="IT.SUPPEX.QNAM" Comparator="EQ">
               <CheckValue>EXPDOSE</CheckValue>
            </RangeCheck>
         </def:WhereClauseDef>
         <def:WhereClauseDef OID="WC.SUPPEX.QNAM.EQ.EXPDOSU">
            <RangeCheck SoftHard="Soft" def:ItemOID="IT.SUPPEX.QNAM" Comparator="EQ">
               <CheckValue>EXPDOSU</CheckValue>
            </RangeCheck>
         </def:WhereClauseDef>
         <def:WhereClauseDef OID="WC.SUPPEX.QNAM.EQ.VISIT">
            <RangeCheck SoftHard="Soft" def:ItemOID="IT.SUPPEX.QNAM" Comparator="EQ">
               <CheckValue>VISIT</CheckValue>
            </RangeCheck>
         </def:WhereClauseDef>
         <def:WhereClauseDef OID="WC.SUPPEX.QNAM.EQ.VISITNUM">
            <RangeCheck SoftHard="Soft" def:ItemOID="IT.SUPPEX.QNAM" Comparator="EQ">
               <CheckValue>VISITNUM</CheckValue>
            </RangeCheck>
         </def:WhereClauseDef>
         <def:WhereClauseDef OID="WC.SUPPIE.QNAM.EQ.RFICDTC">
            <RangeCheck SoftHard="Soft" def:ItemOID="IT.SUPPIE.QNAM" Comparator="EQ">
               <CheckValue>RFICDTC</CheckValue>
            </RangeCheck>
         </def:WhereClauseDef>
         <def:WhereClauseDef OID="WC.SUPPIS.QNAM.EQ.ISRFTDTC">
            <RangeCheck SoftHard="Soft" def:ItemOID="IT.SUPPIS.QNAM" Comparator="EQ">
               <CheckValue>ISRFTDTC</CheckValue>
            </RangeCheck>
         </def:WhereClauseDef>
         <def:WhereClauseDef OID="WC.SUPPIS.QNAM.EQ.ISTPT">
            <RangeCheck SoftHard="Soft" def:ItemOID="IT.SUPPIS.QNAM" Comparator="EQ">
               <CheckValue>ISTPT</CheckValue>
            </RangeCheck>
         </def:WhereClauseDef>
         <def:WhereClauseDef OID="WC.SUPPIS.QNAM.EQ.ISTPTD">
            <RangeCheck SoftHard="Soft" def:ItemOID="IT.SUPPIS.QNAM" Comparator="EQ">
               <CheckValue>ISTPTD</CheckValue>
            </RangeCheck>
         </def:WhereClauseDef>
         <def:WhereClauseDef OID="WC.SUPPIS.QNAM.EQ.ISTPTN">
            <RangeCheck SoftHard="Soft" def:ItemOID="IT.SUPPIS.QNAM" Comparator="EQ">
               <CheckValue>ISTPTN</CheckValue>
            </RangeCheck>
         </def:WhereClauseDef>
         <def:WhereClauseDef OID="WC.SUPPIS.QNAM.EQ.ISTPTNUM">
            <RangeCheck SoftHard="Soft" def:ItemOID="IT.SUPPIS.QNAM" Comparator="EQ">
               <CheckValue>ISTPTNUM</CheckValue>
            </RangeCheck>
         </def:WhereClauseDef>
         <def:WhereClauseDef OID="WC.SUPPIS.QNAM.EQ.ISTPTREF">
            <RangeCheck SoftHard="Soft" def:ItemOID="IT.SUPPIS.QNAM" Comparator="EQ">
               <CheckValue>ISTPTREF</CheckValue>
            </RangeCheck>
         </def:WhereClauseDef>
         <def:WhereClauseDef OID="WC.SUPPLB.QNAM.EQ.LBCATN">
            <RangeCheck SoftHard="Soft" def:ItemOID="IT.SUPPLB.QNAM" Comparator="EQ">
               <CheckValue>LBCATN</CheckValue>
            </RangeCheck>
         </def:WhereClauseDef>
         <def:WhereClauseDef OID="WC.SUPPLB.QNAM.EQ.LBCLSIG">
            <RangeCheck SoftHard="Soft" def:ItemOID="IT.SUPPLB.QNAM" Comparator="EQ">
               <CheckValue>LBCLSIG</CheckValue>
            </RangeCheck>
         </def:WhereClauseDef>
         <def:WhereClauseDef OID="WC.SUPPLB.QNAM.EQ.LBCLSIGS">
            <RangeCheck SoftHard="Soft" def:ItemOID="IT.SUPPLB.QNAM" Comparator="EQ">
               <CheckValue>LBCLSIGS</CheckValue>
            </RangeCheck>
         </def:WhereClauseDef>
         <def:WhereClauseDef OID="WC.SUPPLB.QNAM.EQ.LBLOBXFL">
            <RangeCheck SoftHard="Soft" def:ItemOID="IT.SUPPLB.QNAM" Comparator="EQ">
               <CheckValue>LBLOBXFL</CheckValue>
            </RangeCheck>
         </def:WhereClauseDef>
         <def:WhereClauseDef OID="WC.SUPPLB.QNAM.EQ.LBLVEF">
            <RangeCheck SoftHard="Soft" def:ItemOID="IT.SUPPLB.QNAM" Comparator="EQ">
               <CheckValue>LBLVEF</CheckValue>
            </RangeCheck>
         </def:WhereClauseDef>
         <def:WhereClauseDef OID="WC.SUPPLB.QNAM.EQ.LBTESTN">
            <RangeCheck SoftHard="Soft" def:ItemOID="IT.SUPPLB.QNAM" Comparator="EQ">
               <CheckValue>LBTESTN</CheckValue>
            </RangeCheck>
         </def:WhereClauseDef>
         <def:WhereClauseDef OID="WC.SUPPMH.QNAM.EQ.DICNAME">
            <RangeCheck SoftHard="Soft" def:ItemOID="IT.SUPPMH.QNAM" Comparator="EQ">
               <CheckValue>DICNAME</CheckValue>
            </RangeCheck>
         </def:WhereClauseDef>
         <def:WhereClauseDef OID="WC.SUPPMH.QNAM.EQ.DICVER">
            <RangeCheck SoftHard="Soft" def:ItemOID="IT.SUPPMH.QNAM" Comparator="EQ">
               <CheckValue>DICVER</CheckValue>
            </RangeCheck>
         </def:WhereClauseDef>
         <def:WhereClauseDef OID="WC.SUPPMH.QNAM.EQ.MHONGO">
            <RangeCheck SoftHard="Soft" def:ItemOID="IT.SUPPMH.QNAM" Comparator="EQ">
               <CheckValue>MHONGO</CheckValue>
            </RangeCheck>
         </def:WhereClauseDef>
         <def:WhereClauseDef OID="WC.SUPPMH.QNAM.EQ.MHSPID">
            <RangeCheck SoftHard="Soft" def:ItemOID="IT.SUPPMH.QNAM" Comparator="EQ">
               <CheckValue>MHSPID</CheckValue>
            </RangeCheck>
         </def:WhereClauseDef>
         <def:WhereClauseDef OID="WC.SUPPMH.QNAM.EQ.MHSTDY">
            <RangeCheck SoftHard="Soft" def:ItemOID="IT.SUPPMH.QNAM" Comparator="EQ">
               <CheckValue>MHSTDY</CheckValue>
            </RangeCheck>
         </def:WhereClauseDef>
         <def:WhereClauseDef OID="WC.SUPPMH.QNAM.EQ.MHTERM1">
            <RangeCheck SoftHard="Soft" def:ItemOID="IT.SUPPMH.QNAM" Comparator="EQ">
               <CheckValue>MHTERM1</CheckValue>
            </RangeCheck>
         </def:WhereClauseDef>
         <def:WhereClauseDef OID="WC.SUPPMH.QNAM.EQ.MHTTYN">
            <RangeCheck SoftHard="Soft" def:ItemOID="IT.SUPPMH.QNAM" Comparator="EQ">
               <CheckValue>MHTTYN</CheckValue>
            </RangeCheck>
         </def:WhereClauseDef>
         <def:WhereClauseDef OID="WC.SUPPPC.QNAM.EQ.PCDESC">
            <RangeCheck SoftHard="Soft" def:ItemOID="IT.SUPPPC.QNAM" Comparator="EQ">
               <CheckValue>PCDESC</CheckValue>
            </RangeCheck>
         </def:WhereClauseDef>
         <def:WhereClauseDef OID="WC.SUPPPC.QNAM.EQ.PCTPTD">
            <RangeCheck SoftHard="Soft" def:ItemOID="IT.SUPPPC.QNAM" Comparator="EQ">
               <CheckValue>PCTPTD</CheckValue>
            </RangeCheck>
         </def:WhereClauseDef>
         <def:WhereClauseDef OID="WC.SUPPPC.QNAM.EQ.PCTPTN">
            <RangeCheck SoftHard="Soft" def:ItemOID="IT.SUPPPC.QNAM" Comparator="EQ">
               <CheckValue>PCTPTN</CheckValue>
            </RangeCheck>
         </def:WhereClauseDef>
         <def:WhereClauseDef OID="WC.SUPPPE.QNAM.EQ.PEBLFL">
            <RangeCheck SoftHard="Soft" def:ItemOID="IT.SUPPPE.QNAM" Comparator="EQ">
               <CheckValue>PEBLFL</CheckValue>
            </RangeCheck>
         </def:WhereClauseDef>
         <def:WhereClauseDef OID="WC.SUPPPE.QNAM.EQ.PECATN">
            <RangeCheck SoftHard="Soft" def:ItemOID="IT.SUPPPE.QNAM" Comparator="EQ">
               <CheckValue>PECATN</CheckValue>
            </RangeCheck>
         </def:WhereClauseDef>
         <def:WhereClauseDef OID="WC.SUPPPE.QNAM.EQ.PECOM">
            <RangeCheck SoftHard="Soft" def:ItemOID="IT.SUPPPE.QNAM" Comparator="EQ">
               <CheckValue>PECOM</CheckValue>
            </RangeCheck>
         </def:WhereClauseDef>
         <def:WhereClauseDef OID="WC.SUPPPE.QNAM.EQ.PELOBXFL">
            <RangeCheck SoftHard="Soft" def:ItemOID="IT.SUPPPE.QNAM" Comparator="EQ">
               <CheckValue>PELOBXFL</CheckValue>
            </RangeCheck>
         </def:WhereClauseDef>
         <def:WhereClauseDef OID="WC.SUPPPE.QNAM.EQ.PETESTN">
            <RangeCheck SoftHard="Soft" def:ItemOID="IT.SUPPPE.QNAM" Comparator="EQ">
               <CheckValue>PETESTN</CheckValue>
            </RangeCheck>
         </def:WhereClauseDef>
         <def:WhereClauseDef OID="WC.SUPPPP.QNAM.EQ.PPCATN">
            <RangeCheck SoftHard="Soft" def:ItemOID="IT.SUPPPP.QNAM" Comparator="EQ">
               <CheckValue>PPCATN</CheckValue>
            </RangeCheck>
         </def:WhereClauseDef>
         <def:WhereClauseDef OID="WC.SUPPPP.QNAM.EQ.PPTESTN">
            <RangeCheck SoftHard="Soft" def:ItemOID="IT.SUPPPP.QNAM" Comparator="EQ">
               <CheckValue>PPTESTN</CheckValue>
            </RangeCheck>
         </def:WhereClauseDef>
         <def:WhereClauseDef OID="WC.SUPPPP.QNAM.EQ.PPTESTRT">
            <RangeCheck SoftHard="Soft" def:ItemOID="IT.SUPPPP.QNAM" Comparator="EQ">
               <CheckValue>PPTESTRT</CheckValue>
            </RangeCheck>
         </def:WhereClauseDef>
         <def:WhereClauseDef OID="WC.SUPPPR.QNAM.EQ.DICNAME">
            <RangeCheck SoftHard="Soft" def:ItemOID="IT.SUPPPR.QNAM" Comparator="EQ">
               <CheckValue>DICNAME</CheckValue>
            </RangeCheck>
         </def:WhereClauseDef>
         <def:WhereClauseDef OID="WC.SUPPPR.QNAM.EQ.DICVER">
            <RangeCheck SoftHard="Soft" def:ItemOID="IT.SUPPPR.QNAM" Comparator="EQ">
               <CheckValue>DICVER</CheckValue>
            </RangeCheck>
         </def:WhereClauseDef>
         <def:WhereClauseDef OID="WC.SUPPPR.QNAM.EQ.PRBDSYCD">
            <RangeCheck SoftHard="Soft" def:ItemOID="IT.SUPPPR.QNAM" Comparator="EQ">
               <CheckValue>PRBDSYCD</CheckValue>
            </RangeCheck>
         </def:WhereClauseDef>
         <def:WhereClauseDef OID="WC.SUPPPR.QNAM.EQ.PRBODSYS">
            <RangeCheck SoftHard="Soft" def:ItemOID="IT.SUPPPR.QNAM" Comparator="EQ">
               <CheckValue>PRBODSYS</CheckValue>
            </RangeCheck>
         </def:WhereClauseDef>
         <def:WhereClauseDef OID="WC.SUPPPR.QNAM.EQ.PRDECOD">
            <RangeCheck SoftHard="Soft" def:ItemOID="IT.SUPPPR.QNAM" Comparator="EQ">
               <CheckValue>PRDECOD</CheckValue>
            </RangeCheck>
         </def:WhereClauseDef>
         <def:WhereClauseDef OID="WC.SUPPPR.QNAM.EQ.PRHLGT">
            <RangeCheck SoftHard="Soft" def:ItemOID="IT.SUPPPR.QNAM" Comparator="EQ">
               <CheckValue>PRHLGT</CheckValue>
            </RangeCheck>
         </def:WhereClauseDef>
         <def:WhereClauseDef OID="WC.SUPPPR.QNAM.EQ.PRHLGTCD">
            <RangeCheck SoftHard="Soft" def:ItemOID="IT.SUPPPR.QNAM" Comparator="EQ">
               <CheckValue>PRHLGTCD</CheckValue>
            </RangeCheck>
         </def:WhereClauseDef>
         <def:WhereClauseDef OID="WC.SUPPPR.QNAM.EQ.PRHLT">
            <RangeCheck SoftHard="Soft" def:ItemOID="IT.SUPPPR.QNAM" Comparator="EQ">
               <CheckValue>PRHLT</CheckValue>
            </RangeCheck>
         </def:WhereClauseDef>
         <def:WhereClauseDef OID="WC.SUPPPR.QNAM.EQ.PRHLTCD">
            <RangeCheck SoftHard="Soft" def:ItemOID="IT.SUPPPR.QNAM" Comparator="EQ">
               <CheckValue>PRHLTCD</CheckValue>
            </RangeCheck>
         </def:WhereClauseDef>
         <def:WhereClauseDef OID="WC.SUPPPR.QNAM.EQ.PRINDCO">
            <RangeCheck SoftHard="Soft" def:ItemOID="IT.SUPPPR.QNAM" Comparator="EQ">
               <CheckValue>PRINDCO</CheckValue>
            </RangeCheck>
         </def:WhereClauseDef>
         <def:WhereClauseDef OID="WC.SUPPPR.QNAM.EQ.PRLLT">
            <RangeCheck SoftHard="Soft" def:ItemOID="IT.SUPPPR.QNAM" Comparator="EQ">
               <CheckValue>PRLLT</CheckValue>
            </RangeCheck>
         </def:WhereClauseDef>
         <def:WhereClauseDef OID="WC.SUPPPR.QNAM.EQ.PRLLTCD">
            <RangeCheck SoftHard="Soft" def:ItemOID="IT.SUPPPR.QNAM" Comparator="EQ">
               <CheckValue>PRLLTCD</CheckValue>
            </RangeCheck>
         </def:WhereClauseDef>
         <def:WhereClauseDef OID="WC.SUPPPR.QNAM.EQ.PROLOC">
            <RangeCheck SoftHard="Soft" def:ItemOID="IT.SUPPPR.QNAM" Comparator="EQ">
               <CheckValue>PROLOC</CheckValue>
            </RangeCheck>
         </def:WhereClauseDef>
         <def:WhereClauseDef OID="WC.SUPPPR.QNAM.EQ.PROLS">
            <RangeCheck SoftHard="Soft" def:ItemOID="IT.SUPPPR.QNAM" Comparator="EQ">
               <CheckValue>PROLS</CheckValue>
            </RangeCheck>
         </def:WhereClauseDef>
         <def:WhereClauseDef OID="WC.SUPPPR.QNAM.EQ.PROMET">
            <RangeCheck SoftHard="Soft" def:ItemOID="IT.SUPPPR.QNAM" Comparator="EQ">
               <CheckValue>PROMET</CheckValue>
            </RangeCheck>
         </def:WhereClauseDef>
         <def:WhereClauseDef OID="WC.SUPPPR.QNAM.EQ.PRPTCD">
            <RangeCheck SoftHard="Soft" def:ItemOID="IT.SUPPPR.QNAM" Comparator="EQ">
               <CheckValue>PRPTCD</CheckValue>
            </RangeCheck>
         </def:WhereClauseDef>
         <def:WhereClauseDef OID="WC.SUPPPR.QNAM.EQ.PRSOC">
            <RangeCheck SoftHard="Soft" def:ItemOID="IT.SUPPPR.QNAM" Comparator="EQ">
               <CheckValue>PRSOC</CheckValue>
            </RangeCheck>
         </def:WhereClauseDef>
         <def:WhereClauseDef OID="WC.SUPPPR.QNAM.EQ.PRSOCCD">
            <RangeCheck SoftHard="Soft" def:ItemOID="IT.SUPPPR.QNAM" Comparator="EQ">
               <CheckValue>PRSOCCD</CheckValue>
            </RangeCheck>
         </def:WhereClauseDef>
         <def:WhereClauseDef OID="WC.SUPPPR.QNAM.EQ.PRSPID">
            <RangeCheck SoftHard="Soft" def:ItemOID="IT.SUPPPR.QNAM" Comparator="EQ">
               <CheckValue>PRSPID</CheckValue>
            </RangeCheck>
         </def:WhereClauseDef>
         <def:WhereClauseDef OID="WC.SUPPRS.QNAM.EQ.RSBLFL">
            <RangeCheck SoftHard="Soft" def:ItemOID="IT.SUPPRS.QNAM" Comparator="EQ">
               <CheckValue>RSBLFL</CheckValue>
            </RangeCheck>
         </def:WhereClauseDef>
         <def:WhereClauseDef OID="WC.SUPPRS.QNAM.EQ.RSLOBXFL">
            <RangeCheck SoftHard="Soft" def:ItemOID="IT.SUPPRS.QNAM" Comparator="EQ">
               <CheckValue>RSLOBXFL</CheckValue>
            </RangeCheck>
         </def:WhereClauseDef>
         <def:WhereClauseDef OID="WC.SUPPSS.QNAM.EQ.DTHDTC">
            <RangeCheck SoftHard="Soft" def:ItemOID="IT.SUPPSS.QNAM" Comparator="EQ">
               <CheckValue>DTHDTC</CheckValue>
            </RangeCheck>
         </def:WhereClauseDef>
         <def:WhereClauseDef OID="WC.SUPPSS.QNAM.EQ.SSSFS">
            <RangeCheck SoftHard="Soft" def:ItemOID="IT.SUPPSS.QNAM" Comparator="EQ">
               <CheckValue>SSSFS</CheckValue>
            </RangeCheck>
         </def:WhereClauseDef>
         <def:WhereClauseDef OID="WC.SUPPSS.QNAM.EQ.SSWAY">
            <RangeCheck SoftHard="Soft" def:ItemOID="IT.SUPPSS.QNAM" Comparator="EQ">
               <CheckValue>SSWAY</CheckValue>
            </RangeCheck>
         </def:WhereClauseDef>
         <def:WhereClauseDef OID="WC.SUPPSV.QNAM.EQ.SVOCCUR">
            <RangeCheck SoftHard="Soft" def:ItemOID="IT.SUPPSV.QNAM" Comparator="EQ">
               <CheckValue>SVOCCUR</CheckValue>
            </RangeCheck>
         </def:WhereClauseDef>
         <def:WhereClauseDef OID="WC.SUPPSV.QNAM.EQ.SVPRESP">
            <RangeCheck SoftHard="Soft" def:ItemOID="IT.SUPPSV.QNAM" Comparator="EQ">
               <CheckValue>SVPRESP</CheckValue>
            </RangeCheck>
         </def:WhereClauseDef>
         <def:WhereClauseDef OID="WC.SUPPTR.QNAM.EQ.ORGAN">
            <RangeCheck SoftHard="Soft" def:ItemOID="IT.SUPPTR.QNAM" Comparator="EQ">
               <CheckValue>ORGAN</CheckValue>
            </RangeCheck>
         </def:WhereClauseDef>
         <def:WhereClauseDef OID="WC.SUPPTR.QNAM.EQ.PART">
            <RangeCheck SoftHard="Soft" def:ItemOID="IT.SUPPTR.QNAM" Comparator="EQ">
               <CheckValue>PART</CheckValue>
            </RangeCheck>
         </def:WhereClauseDef>
         <def:WhereClauseDef OID="WC.SUPPTR.QNAM.EQ.TRLOBXFL">
            <RangeCheck SoftHard="Soft" def:ItemOID="IT.SUPPTR.QNAM" Comparator="EQ">
               <CheckValue>TRLOBXFL</CheckValue>
            </RangeCheck>
         </def:WhereClauseDef>
         <def:WhereClauseDef OID="WC.SUPPTR.QNAM.EQ.TRT01A">
            <RangeCheck SoftHard="Soft" def:ItemOID="IT.SUPPTR.QNAM" Comparator="EQ">
               <CheckValue>TRT01A</CheckValue>
            </RangeCheck>
         </def:WhereClauseDef>
         <def:WhereClauseDef OID="WC.SUPPTU.QNAM.EQ.TULOBXFL">
            <RangeCheck SoftHard="Soft" def:ItemOID="IT.SUPPTU.QNAM" Comparator="EQ">
               <CheckValue>TULOBXFL</CheckValue>
            </RangeCheck>
         </def:WhereClauseDef>
         <def:WhereClauseDef OID="WC.SUPPTU.QNAM.EQ.TUPART">
            <RangeCheck SoftHard="Soft" def:ItemOID="IT.SUPPTU.QNAM" Comparator="EQ">
               <CheckValue>TUPART</CheckValue>
            </RangeCheck>
         </def:WhereClauseDef>
         <def:WhereClauseDef OID="WC.SUPPVS.QNAM.EQ.VSCATN">
            <RangeCheck SoftHard="Soft" def:ItemOID="IT.SUPPVS.QNAM" Comparator="EQ">
               <CheckValue>VSCATN</CheckValue>
            </RangeCheck>
         </def:WhereClauseDef>
         <def:WhereClauseDef OID="WC.SUPPVS.QNAM.EQ.VSCLSIG">
            <RangeCheck SoftHard="Soft" def:ItemOID="IT.SUPPVS.QNAM" Comparator="EQ">
               <CheckValue>VSCLSIG</CheckValue>
            </RangeCheck>
         </def:WhereClauseDef>
         <def:WhereClauseDef OID="WC.SUPPVS.QNAM.EQ.VSLOBXFL">
            <RangeCheck SoftHard="Soft" def:ItemOID="IT.SUPPVS.QNAM" Comparator="EQ">
               <CheckValue>VSLOBXFL</CheckValue>
            </RangeCheck>
         </def:WhereClauseDef>
         <def:WhereClauseDef OID="WC.SUPPVS.QNAM.EQ.VSNRIND">
            <RangeCheck SoftHard="Soft" def:ItemOID="IT.SUPPVS.QNAM" Comparator="EQ">
               <CheckValue>VSNRIND</CheckValue>
            </RangeCheck>
         </def:WhereClauseDef>
         <def:WhereClauseDef OID="WC.SUPPVS.QNAM.EQ.VSSPEC">
            <RangeCheck SoftHard="Soft" def:ItemOID="IT.SUPPVS.QNAM" Comparator="EQ">
               <CheckValue>VSSPEC</CheckValue>
            </RangeCheck>
         </def:WhereClauseDef>
         <def:WhereClauseDef OID="WC.SUPPVS.QNAM.EQ.VSSTNRC">
            <RangeCheck SoftHard="Soft" def:ItemOID="IT.SUPPVS.QNAM" Comparator="EQ">
               <CheckValue>VSSTNRC</CheckValue>
            </RangeCheck>
         </def:WhereClauseDef>
         <def:WhereClauseDef OID="WC.SUPPVS.QNAM.EQ.VSTESTN">
            <RangeCheck SoftHard="Soft" def:ItemOID="IT.SUPPVS.QNAM" Comparator="EQ">
               <CheckValue>VSTESTN</CheckValue>
            </RangeCheck>
         </def:WhereClauseDef>
         <def:WhereClauseDef OID="WC.TS.TSPARMCD.EQ.ACTSUB">
            <RangeCheck SoftHard="Soft" def:ItemOID="IT.TS.TSPARMCD" Comparator="EQ">
               <CheckValue>ACTSUB</CheckValue>
            </RangeCheck>
         </def:WhereClauseDef>
         <def:WhereClauseDef OID="WC.TS.TSPARMCD.EQ.AGEMAX">
            <RangeCheck SoftHard="Soft" def:ItemOID="IT.TS.TSPARMCD" Comparator="EQ">
               <CheckValue>AGEMAX</CheckValue>
            </RangeCheck>
         </def:WhereClauseDef>
         <def:WhereClauseDef OID="WC.TS.TSPARMCD.EQ.AGEMIN">
            <RangeCheck SoftHard="Soft" def:ItemOID="IT.TS.TSPARMCD" Comparator="EQ">
               <CheckValue>AGEMIN</CheckValue>
            </RangeCheck>
         </def:WhereClauseDef>
         <def:WhereClauseDef OID="WC.TS.TSPARMCD.EQ.DCUTDESC">
            <RangeCheck SoftHard="Soft" def:ItemOID="IT.TS.TSPARMCD" Comparator="EQ">
               <CheckValue>DCUTDESC</CheckValue>
            </RangeCheck>
         </def:WhereClauseDef>
         <def:WhereClauseDef OID="WC.TS.TSPARMCD.EQ.DCUTDTC">
            <RangeCheck SoftHard="Soft" def:ItemOID="IT.TS.TSPARMCD" Comparator="EQ">
               <CheckValue>DCUTDTC</CheckValue>
            </RangeCheck>
         </def:WhereClauseDef>
         <def:WhereClauseDef OID="WC.TS.TSPARMCD.EQ.DOSE">
            <RangeCheck SoftHard="Soft" def:ItemOID="IT.TS.TSPARMCD" Comparator="EQ">
               <CheckValue>DOSE</CheckValue>
            </RangeCheck>
         </def:WhereClauseDef>
         <def:WhereClauseDef OID="WC.TS.TSPARMCD.EQ.DOSFRM">
            <RangeCheck SoftHard="Soft" def:ItemOID="IT.TS.TSPARMCD" Comparator="EQ">
               <CheckValue>DOSFRM</CheckValue>
            </RangeCheck>
         </def:WhereClauseDef>
         <def:WhereClauseDef OID="WC.TS.TSPARMCD.EQ.DOSFRQ">
            <RangeCheck SoftHard="Soft" def:ItemOID="IT.TS.TSPARMCD" Comparator="EQ">
               <CheckValue>DOSFRQ</CheckValue>
            </RangeCheck>
         </def:WhereClauseDef>
         <def:WhereClauseDef OID="WC.TS.TSPARMCD.EQ.DOSU">
            <RangeCheck SoftHard="Soft" def:ItemOID="IT.TS.TSPARMCD" Comparator="EQ">
               <CheckValue>DOSU</CheckValue>
            </RangeCheck>
         </def:WhereClauseDef>
         <def:WhereClauseDef OID="WC.TS.TSPARMCD.EQ.FCNTRY">
            <RangeCheck SoftHard="Soft" def:ItemOID="IT.TS.TSPARMCD" Comparator="EQ">
               <CheckValue>FCNTRY</CheckValue>
            </RangeCheck>
         </def:WhereClauseDef>
         <def:WhereClauseDef OID="WC.TS.TSPARMCD.EQ.HLTSUBJI">
            <RangeCheck SoftHard="Soft" def:ItemOID="IT.TS.TSPARMCD" Comparator="EQ">
               <CheckValue>HLTSUBJI</CheckValue>
            </RangeCheck>
         </def:WhereClauseDef>
         <def:WhereClauseDef OID="WC.TS.TSPARMCD.EQ.INTMODEL">
            <RangeCheck SoftHard="Soft" def:ItemOID="IT.TS.TSPARMCD" Comparator="EQ">
               <CheckValue>INTMODEL</CheckValue>
            </RangeCheck>
         </def:WhereClauseDef>
         <def:WhereClauseDef OID="WC.TS.TSPARMCD.EQ.INTTYPE">
            <RangeCheck SoftHard="Soft" def:ItemOID="IT.TS.TSPARMCD" Comparator="EQ">
               <CheckValue>INTTYPE</CheckValue>
            </RangeCheck>
         </def:WhereClauseDef>
         <def:WhereClauseDef OID="WC.TS.TSPARMCD.EQ.LENGTH">
            <RangeCheck SoftHard="Soft" def:ItemOID="IT.TS.TSPARMCD" Comparator="EQ">
               <CheckValue>LENGTH</CheckValue>
            </RangeCheck>
         </def:WhereClauseDef>
         <def:WhereClauseDef OID="WC.TS.TSPARMCD.EQ.NARMS">
            <RangeCheck SoftHard="Soft" def:ItemOID="IT.TS.TSPARMCD" Comparator="EQ">
               <CheckValue>NARMS</CheckValue>
            </RangeCheck>
         </def:WhereClauseDef>
         <def:WhereClauseDef OID="WC.TS.TSPARMCD.EQ.NCOHORT">
            <RangeCheck SoftHard="Soft" def:ItemOID="IT.TS.TSPARMCD" Comparator="EQ">
               <CheckValue>NCOHORT</CheckValue>
            </RangeCheck>
         </def:WhereClauseDef>
         <def:WhereClauseDef OID="WC.TS.TSPARMCD.EQ.OBJPRIM">
            <RangeCheck SoftHard="Soft" def:ItemOID="IT.TS.TSPARMCD" Comparator="EQ">
               <CheckValue>OBJPRIM</CheckValue>
            </RangeCheck>
         </def:WhereClauseDef>
         <def:WhereClauseDef OID="WC.TS.TSPARMCD.EQ.OBJSEC">
            <RangeCheck SoftHard="Soft" def:ItemOID="IT.TS.TSPARMCD" Comparator="EQ">
               <CheckValue>OBJSEC</CheckValue>
            </RangeCheck>
         </def:WhereClauseDef>
         <def:WhereClauseDef OID="WC.TS.TSPARMCD.EQ.OUTMSPRI">
            <RangeCheck SoftHard="Soft" def:ItemOID="IT.TS.TSPARMCD" Comparator="EQ">
               <CheckValue>OUTMSPRI</CheckValue>
            </RangeCheck>
         </def:WhereClauseDef>
         <def:WhereClauseDef OID="WC.TS.TSPARMCD.EQ.OUTMSSEC">
            <RangeCheck SoftHard="Soft" def:ItemOID="IT.TS.TSPARMCD" Comparator="EQ">
               <CheckValue>OUTMSSEC</CheckValue>
            </RangeCheck>
         </def:WhereClauseDef>
         <def:WhereClauseDef OID="WC.TS.TSPARMCD.EQ.PCLAS">
            <RangeCheck SoftHard="Soft" def:ItemOID="IT.TS.TSPARMCD" Comparator="EQ">
               <CheckValue>PCLAS</CheckValue>
            </RangeCheck>
         </def:WhereClauseDef>
         <def:WhereClauseDef OID="WC.TS.TSPARMCD.EQ.PLANSUB">
            <RangeCheck SoftHard="Soft" def:ItemOID="IT.TS.TSPARMCD" Comparator="EQ">
               <CheckValue>PLANSUB</CheckValue>
            </RangeCheck>
         </def:WhereClauseDef>
         <def:WhereClauseDef OID="WC.TS.TSPARMCD.EQ.RANDOM">
            <RangeCheck SoftHard="Soft" def:ItemOID="IT.TS.TSPARMCD" Comparator="EQ">
               <CheckValue>RANDOM</CheckValue>
            </RangeCheck>
         </def:WhereClauseDef>
         <def:WhereClauseDef OID="WC.TS.TSPARMCD.EQ.REGID">
            <RangeCheck SoftHard="Soft" def:ItemOID="IT.TS.TSPARMCD" Comparator="EQ">
               <CheckValue>REGID</CheckValue>
            </RangeCheck>
         </def:WhereClauseDef>
         <def:WhereClauseDef OID="WC.TS.TSPARMCD.EQ.ROUTE">
            <RangeCheck SoftHard="Soft" def:ItemOID="IT.TS.TSPARMCD" Comparator="EQ">
               <CheckValue>ROUTE</CheckValue>
            </RangeCheck>
         </def:WhereClauseDef>
         <def:WhereClauseDef OID="WC.TS.TSPARMCD.EQ.SDTIGVER">
            <RangeCheck SoftHard="Soft" def:ItemOID="IT.TS.TSPARMCD" Comparator="EQ">
               <CheckValue>SDTIGVER</CheckValue>
            </RangeCheck>
         </def:WhereClauseDef>
         <def:WhereClauseDef OID="WC.TS.TSPARMCD.EQ.SDTMVER">
            <RangeCheck SoftHard="Soft" def:ItemOID="IT.TS.TSPARMCD" Comparator="EQ">
               <CheckValue>SDTMVER</CheckValue>
            </RangeCheck>
         </def:WhereClauseDef>
         <def:WhereClauseDef OID="WC.TS.TSPARMCD.EQ.SENDTC">
            <RangeCheck SoftHard="Soft" def:ItemOID="IT.TS.TSPARMCD" Comparator="EQ">
               <CheckValue>SENDTC</CheckValue>
            </RangeCheck>
         </def:WhereClauseDef>
         <def:WhereClauseDef OID="WC.TS.TSPARMCD.EQ.SEXPOP">
            <RangeCheck SoftHard="Soft" def:ItemOID="IT.TS.TSPARMCD" Comparator="EQ">
               <CheckValue>SEXPOP</CheckValue>
            </RangeCheck>
         </def:WhereClauseDef>
         <def:WhereClauseDef OID="WC.TS.TSPARMCD.EQ.SPONSOR">
            <RangeCheck SoftHard="Soft" def:ItemOID="IT.TS.TSPARMCD" Comparator="EQ">
               <CheckValue>SPONSOR</CheckValue>
            </RangeCheck>
         </def:WhereClauseDef>
         <def:WhereClauseDef OID="WC.TS.TSPARMCD.EQ.SSTDTC">
            <RangeCheck SoftHard="Soft" def:ItemOID="IT.TS.TSPARMCD" Comparator="EQ">
               <CheckValue>SSTDTC</CheckValue>
            </RangeCheck>
         </def:WhereClauseDef>
         <def:WhereClauseDef OID="WC.TS.TSPARMCD.EQ.STOPRULE">
            <RangeCheck SoftHard="Soft" def:ItemOID="IT.TS.TSPARMCD" Comparator="EQ">
               <CheckValue>STOPRULE</CheckValue>
            </RangeCheck>
         </def:WhereClauseDef>
         <def:WhereClauseDef OID="WC.TS.TSPARMCD.EQ.STYPE">
            <RangeCheck SoftHard="Soft" def:ItemOID="IT.TS.TSPARMCD" Comparator="EQ">
               <CheckValue>STYPE</CheckValue>
            </RangeCheck>
         </def:WhereClauseDef>
         <def:WhereClauseDef OID="WC.TS.TSPARMCD.EQ.TBLIND">
            <RangeCheck SoftHard="Soft" def:ItemOID="IT.TS.TSPARMCD" Comparator="EQ">
               <CheckValue>TBLIND</CheckValue>
            </RangeCheck>
         </def:WhereClauseDef>
         <def:WhereClauseDef OID="WC.TS.TSPARMCD.EQ.TDIGRP">
            <RangeCheck SoftHard="Soft" def:ItemOID="IT.TS.TSPARMCD" Comparator="EQ">
               <CheckValue>TDIGRP</CheckValue>
            </RangeCheck>
         </def:WhereClauseDef>
         <def:WhereClauseDef OID="WC.TS.TSPARMCD.EQ.THERAREA">
            <RangeCheck SoftHard="Soft" def:ItemOID="IT.TS.TSPARMCD" Comparator="EQ">
               <CheckValue>THERAREA</CheckValue>
            </RangeCheck>
         </def:WhereClauseDef>
         <def:WhereClauseDef OID="WC.TS.TSPARMCD.EQ.TINDTP">
            <RangeCheck SoftHard="Soft" def:ItemOID="IT.TS.TSPARMCD" Comparator="EQ">
               <CheckValue>TINDTP</CheckValue>
            </RangeCheck>
         </def:WhereClauseDef>
         <def:WhereClauseDef OID="WC.TS.TSPARMCD.EQ.TITLE">
            <RangeCheck SoftHard="Soft" def:ItemOID="IT.TS.TSPARMCD" Comparator="EQ">
               <CheckValue>TITLE</CheckValue>
            </RangeCheck>
         </def:WhereClauseDef>
         <def:WhereClauseDef OID="WC.TS.TSPARMCD.EQ.TPHASE">
            <RangeCheck SoftHard="Soft" def:ItemOID="IT.TS.TSPARMCD" Comparator="EQ">
               <CheckValue>TPHASE</CheckValue>
            </RangeCheck>
         </def:WhereClauseDef>
         <def:WhereClauseDef OID="WC.TS.TSPARMCD.EQ.TRT">
            <RangeCheck SoftHard="Soft" def:ItemOID="IT.TS.TSPARMCD" Comparator="EQ">
               <CheckValue>TRT</CheckValue>
            </RangeCheck>
         </def:WhereClauseDef>
         <def:WhereClauseDef OID="WC.TS.TSPARMCD.EQ.TTYPE">
            <RangeCheck SoftHard="Soft" def:ItemOID="IT.TS.TSPARMCD" Comparator="EQ">
               <CheckValue>TTYPE</CheckValue>
            </RangeCheck>
         </def:WhereClauseDef>
         <def:WhereClauseDef OID="WC.VS.VSTESTCD.EQ.BMI">
            <RangeCheck SoftHard="Soft" def:ItemOID="IT.VS.VSTESTCD" Comparator="EQ">
               <CheckValue>BMI</CheckValue>
            </RangeCheck>
         </def:WhereClauseDef>
         <def:WhereClauseDef OID="WC.VS.VSTESTCD.EQ.DIABP">
            <RangeCheck SoftHard="Soft" def:ItemOID="IT.VS.VSTESTCD" Comparator="EQ">
               <CheckValue>DIABP</CheckValue>
            </RangeCheck>
         </def:WhereClauseDef>
         <def:WhereClauseDef OID="WC.VS.VSTESTCD.EQ.HEIGHT">
            <RangeCheck SoftHard="Soft" def:ItemOID="IT.VS.VSTESTCD" Comparator="EQ">
               <CheckValue>HEIGHT</CheckValue>
            </RangeCheck>
         </def:WhereClauseDef>
         <def:WhereClauseDef OID="WC.VS.VSTESTCD.EQ.PULSE">
            <RangeCheck SoftHard="Soft" def:ItemOID="IT.VS.VSTESTCD" Comparator="EQ">
               <CheckValue>PULSE</CheckValue>
            </RangeCheck>
         </def:WhereClauseDef>
         <def:WhereClauseDef OID="WC.VS.VSTESTCD.EQ.RESP">
            <RangeCheck SoftHard="Soft" def:ItemOID="IT.VS.VSTESTCD" Comparator="EQ">
               <CheckValue>RESP</CheckValue>
            </RangeCheck>
         </def:WhereClauseDef>
         <def:WhereClauseDef OID="WC.VS.VSTESTCD.EQ.SYSBP">
            <RangeCheck SoftHard="Soft" def:ItemOID="IT.VS.VSTESTCD" Comparator="EQ">
               <CheckValue>SYSBP</CheckValue>
            </RangeCheck>
         </def:WhereClauseDef>
         <def:WhereClauseDef OID="WC.VS.VSTESTCD.EQ.TEMP">
            <RangeCheck SoftHard="Soft" def:ItemOID="IT.VS.VSTESTCD" Comparator="EQ">
               <CheckValue>TEMP</CheckValue>
            </RangeCheck>
         </def:WhereClauseDef>
         <def:WhereClauseDef OID="WC.VS.VSTESTCD.EQ.WEIGHT">
            <RangeCheck SoftHard="Soft" def:ItemOID="IT.VS.VSTESTCD" Comparator="EQ">
               <CheckValue>WEIGHT</CheckValue>
            </RangeCheck>
         </def:WhereClauseDef>
         <ItemGroupDef OID="IG.TA" Domain="TA" Name="TA" Repeating="No" IsReferenceData="Yes"
                       SASDatasetName="TA"
                       Purpose="Tabulation"
                       def:Structure="每个试验组每个计划元素一条记录"
                       def:ArchiveLocationID="LF.TA"
                       def:StandardOID="STD.SDTMIG 3.2">
            <Description>
               <TranslatedText>试验分组</TranslatedText>
            </Description>
            <ItemRef ItemOID="IT.TA.STUDYID" Mandatory="Yes" OrderNumber="1" KeySequence="1"
                     Role="Identifier"/>
            <ItemRef ItemOID="IT.TA.DOMAIN" Mandatory="Yes" OrderNumber="2" Role="Identifier"/>
            <ItemRef ItemOID="IT.TA.ARMCD" Mandatory="Yes" OrderNumber="3" KeySequence="2"
                     Role="Topic"/>
            <ItemRef ItemOID="IT.TA.ARM" Mandatory="Yes" OrderNumber="4" Role="Synonym Qualifier"/>
            <ItemRef ItemOID="IT.TA.TAETORD" Mandatory="Yes" OrderNumber="5" KeySequence="3"
                     Role="Timing"/>
            <ItemRef ItemOID="IT.TA.ETCD" Mandatory="Yes" OrderNumber="6" Role="Record Qualifier"/>
            <ItemRef ItemOID="IT.TA.ELEMENT" Mandatory="No" OrderNumber="7" Role="Synonym Qualifier"/>
            <ItemRef ItemOID="IT.TA.TABRANCH" Mandatory="No" OrderNumber="8" Role="Rule"/>
            <ItemRef ItemOID="IT.TA.TATRANS" Mandatory="No" OrderNumber="9" Role="Rule"/>
            <ItemRef ItemOID="IT.TA.EPOCH" Mandatory="Yes" OrderNumber="10" Role="Timing"/>
            <def:Class Name="TRIAL DESIGN"/>
            <def:leaf ID="LF.TA" xlink:href="ta.xpt">
               <def:title>ta.xpt</def:title>
            </def:leaf>
         </ItemGroupDef>
         <ItemGroupDef OID="IG.TE" Domain="TE" Name="TE" Repeating="No" IsReferenceData="Yes"
                       SASDatasetName="TE"
                       Purpose="Tabulation"
                       def:Structure="每个计划元素一条记录"
                       def:ArchiveLocationID="LF.TE"
                       def:StandardOID="STD.SDTMIG 3.2">
            <Description>
               <TranslatedText>试验元素</TranslatedText>
            </Description>
            <ItemRef ItemOID="IT.TE.STUDYID" Mandatory="Yes" OrderNumber="1" KeySequence="1"
                     Role="Identifier"/>
            <ItemRef ItemOID="IT.TE.DOMAIN" Mandatory="Yes" OrderNumber="2" Role="Identifier"/>
            <ItemRef ItemOID="IT.TE.ETCD" Mandatory="Yes" OrderNumber="3" KeySequence="2"
                     Role="Topic"/>
            <ItemRef ItemOID="IT.TE.ELEMENT" Mandatory="Yes" OrderNumber="4"
                     Role="Synonym Qualifier"/>
            <ItemRef ItemOID="IT.TE.TESTRL" Mandatory="Yes" OrderNumber="5" Role="Rule"/>
            <ItemRef ItemOID="IT.TE.TEENRL" Mandatory="No" OrderNumber="6" Role="Rule"/>
            <def:Class Name="TRIAL DESIGN"/>
            <def:leaf ID="LF.TE" xlink:href="te.xpt">
               <def:title>te.xpt</def:title>
            </def:leaf>
         </ItemGroupDef>
         <ItemGroupDef OID="IG.TI" Domain="TI" Name="TI" Repeating="No" IsReferenceData="Yes"
                       SASDatasetName="TI"
                       Purpose="Tabulation"
                       def:Structure="每条入选/排除标准一条记录"
                       def:ArchiveLocationID="LF.TI"
                       def:StandardOID="STD.SDTMIG 3.2">
            <Description>
               <TranslatedText>试验入选/排除标准</TranslatedText>
            </Description>
            <ItemRef ItemOID="IT.TI.STUDYID" Mandatory="Yes" OrderNumber="1" KeySequence="1"
                     Role="Identifier"/>
            <ItemRef ItemOID="IT.TI.DOMAIN" Mandatory="Yes" OrderNumber="2" Role="Identifier"/>
            <ItemRef ItemOID="IT.TI.IETESTCD" Mandatory="Yes" OrderNumber="3" KeySequence="3"
                     Role="Topic"/>
            <ItemRef ItemOID="IT.TI.IETEST" Mandatory="Yes" OrderNumber="4" Role="Synonym Qualifier"/>
            <ItemRef ItemOID="IT.TI.IECAT" Mandatory="Yes" OrderNumber="5" Role="Grouping Qualifier"/>
            <ItemRef ItemOID="IT.TI.TIVERS" Mandatory="No" OrderNumber="6" KeySequence="2"
                     Role="Record Qualifier"/>
            <def:Class Name="TRIAL DESIGN"/>
            <def:leaf ID="LF.TI" xlink:href="ti.xpt">
               <def:title>ti.xpt</def:title>
            </def:leaf>
         </ItemGroupDef>
         <ItemGroupDef OID="IG.TS" Domain="TS" Name="TS" Repeating="No" IsReferenceData="Yes"
                       SASDatasetName="TS"
                       Purpose="Tabulation"
                       def:Structure="每个实验概要参数值一条记录"
                       def:ArchiveLocationID="LF.TS"
                       def:StandardOID="STD.SDTMIG 3.2">
            <Description>
               <TranslatedText>试验概要</TranslatedText>
            </Description>
            <ItemRef ItemOID="IT.TS.STUDYID" Mandatory="Yes" OrderNumber="1" KeySequence="1"
                     Role="Identifier"/>
            <ItemRef ItemOID="IT.TS.DOMAIN" Mandatory="Yes" OrderNumber="2" Role="Identifier"/>
            <ItemRef ItemOID="IT.TS.TSSEQ" Mandatory="Yes" OrderNumber="3" KeySequence="3"
                     MethodOID="MT.Method.TSSEQ"
                     Role="Identifier"/>
            <ItemRef ItemOID="IT.TS.TSGRPID" Mandatory="No" OrderNumber="4"
                     MethodOID="MT.Method.TSGRPID"
                     Role="Identifier"/>
            <ItemRef ItemOID="IT.TS.TSPARMCD" Mandatory="Yes" OrderNumber="5" KeySequence="2"
                     Role="Topic"/>
            <ItemRef ItemOID="IT.TS.TSPARM" Mandatory="Yes" OrderNumber="6" Role="Synonym Qualifier"/>
            <ItemRef ItemOID="IT.TS.TSVAL" Mandatory="No" OrderNumber="7" Role="Result Qualifier"/>
            <ItemRef ItemOID="IT.TS.TSVALNF" Mandatory="No" OrderNumber="8" Role="Result Qualifier"/>
            <ItemRef ItemOID="IT.TS.TSVALCD" Mandatory="No" OrderNumber="9" Role="Result Qualifier"/>
            <ItemRef ItemOID="IT.TS.TSVCDREF" Mandatory="No" OrderNumber="10"
                     Role="Result Qualifier"/>
            <ItemRef ItemOID="IT.TS.TSVCDVER" Mandatory="No" OrderNumber="11"
                     Role="Result Qualifier"/>
            <def:Class Name="TRIAL DESIGN"/>
            <def:leaf ID="LF.TS" xlink:href="ts.xpt">
               <def:title>ts.xpt</def:title>
            </def:leaf>
         </ItemGroupDef>
         <ItemGroupDef OID="IG.TV" Domain="TV" Name="TV" Repeating="No" IsReferenceData="Yes"
                       SASDatasetName="TV"
                       Purpose="Tabulation"
                       def:Structure="每个分组每个计划访视一条记录"
                       def:ArchiveLocationID="LF.TV"
                       def:StandardOID="STD.SDTMIG 3.2">
            <Description>
               <TranslatedText>试验访视</TranslatedText>
            </Description>
            <ItemRef ItemOID="IT.TV.STUDYID" Mandatory="Yes" OrderNumber="1" KeySequence="1"
                     Role="Identifier"/>
            <ItemRef ItemOID="IT.TV.DOMAIN" Mandatory="Yes" OrderNumber="2" Role="Identifier"/>
            <ItemRef ItemOID="IT.TV.VISITNUM" Mandatory="Yes" OrderNumber="3" KeySequence="2"
                     Role="Topic"/>
            <ItemRef ItemOID="IT.TV.VISIT" Mandatory="No" OrderNumber="4" Role="Synonym Qualifier"/>
            <ItemRef ItemOID="IT.TV.ARMCD" Mandatory="No" OrderNumber="5" KeySequence="3"
                     Role="Record Qualifier"/>
            <ItemRef ItemOID="IT.TV.TVSTRL" Mandatory="Yes" OrderNumber="6" Role="Rule"/>
            <def:Class Name="TRIAL DESIGN"/>
            <def:leaf ID="LF.TV" xlink:href="tv.xpt">
               <def:title>tv.xpt</def:title>
            </def:leaf>
         </ItemGroupDef>
         <ItemGroupDef OID="IG.DM" Domain="DM" Name="DM" Repeating="No" IsReferenceData="No"
                       SASDatasetName="DM"
                       Purpose="Tabulation"
                       def:Structure="每个受试者一条记录"
                       def:ArchiveLocationID="LF.DM"
                       def:StandardOID="STD.SDTMIG 3.2">
            <Description>
               <TranslatedText>人口学</TranslatedText>
            </Description>
            <ItemRef ItemOID="IT.DM.STUDYID" Mandatory="Yes" OrderNumber="1" KeySequence="1"
                     Role="Identifier"/>
            <ItemRef ItemOID="IT.DM.DOMAIN" Mandatory="Yes" OrderNumber="2" Role="Identifier"/>
            <ItemRef ItemOID="IT.DM.USUBJID" Mandatory="Yes" OrderNumber="3" KeySequence="2"
                     MethodOID="MT.Method.USUBJID"
                     Role="Identifier"/>
            <ItemRef ItemOID="IT.DM.SUBJID" Mandatory="Yes" OrderNumber="4"
                     MethodOID="MT.Method.SUBJID"
                     Role="Topic"/>
            <ItemRef ItemOID="IT.DM.RFSTDTC" Mandatory="No" OrderNumber="5"
                     MethodOID="MT.Method.RFSTDTC"
                     Role="Record Qualifier"/>
            <ItemRef ItemOID="IT.DM.RFENDTC" Mandatory="No" OrderNumber="6"
                     MethodOID="MT.Method.RFENDTC"
                     Role="Record Qualifier"/>
            <ItemRef ItemOID="IT.DM.RFXSTDTC" Mandatory="No" OrderNumber="7"
                     MethodOID="MT.Method.RFXSTDTC"
                     Role="Record Qualifier"/>
            <ItemRef ItemOID="IT.DM.RFXENDTC" Mandatory="No" OrderNumber="8"
                     MethodOID="MT.Method.RFXENDTC"
                     Role="Record Qualifier"/>
            <ItemRef ItemOID="IT.DM.RFICDTC" Mandatory="No" OrderNumber="9" Role="Record Qualifier"/>
            <ItemRef ItemOID="IT.DM.RFPENDTC" Mandatory="No" OrderNumber="10"
                     MethodOID="MT.Method.RFPENDTC"
                     Role="Record Qualifier"/>
            <ItemRef ItemOID="IT.DM.DTHDTC" Mandatory="No" OrderNumber="11" Role="Record Qualifier"/>
            <ItemRef ItemOID="IT.DM.DTHFL" Mandatory="No" OrderNumber="12" Role="Record Qualifier"/>
            <ItemRef ItemOID="IT.DM.SITEID" Mandatory="Yes" OrderNumber="13" Role="Record Qualifier"/>
            <ItemRef ItemOID="IT.DM.BRTHDTC" Mandatory="No" OrderNumber="14" Role="Record Qualifier"/>
            <ItemRef ItemOID="IT.DM.AGE" Mandatory="No" OrderNumber="15" Role="Record Qualifier"/>
            <ItemRef ItemOID="IT.DM.AGEU" Mandatory="No" OrderNumber="16" Role="Variable Qualifier"/>
            <ItemRef ItemOID="IT.DM.SEX" Mandatory="Yes" OrderNumber="17" Role="Record Qualifier"/>
            <ItemRef ItemOID="IT.DM.RACE" Mandatory="No" OrderNumber="18" Role="Record Qualifier"/>
            <ItemRef ItemOID="IT.DM.ETHNIC" Mandatory="No" OrderNumber="19" Role="Record Qualifier"/>
            <ItemRef ItemOID="IT.DM.ARMCD" Mandatory="Yes" OrderNumber="20" Role="Record Qualifier"/>
            <ItemRef ItemOID="IT.DM.ARM" Mandatory="Yes" OrderNumber="21" Role="Synonym Qualifier"/>
            <ItemRef ItemOID="IT.DM.ACTARMCD" Mandatory="Yes" OrderNumber="22"
                     Role="Record Qualifier"/>
            <ItemRef ItemOID="IT.DM.ACTARM" Mandatory="Yes" OrderNumber="23"
                     Role="Synonym Qualifier"/>
            <ItemRef ItemOID="IT.DM.COUNTRY" Mandatory="Yes" OrderNumber="24"
                     Role="Record Qualifier"/>
            <def:Class Name="SPECIAL PURPOSE"/>
            <def:leaf ID="LF.DM" xlink:href="dm.xpt">
               <def:title>dm.xpt</def:title>
            </def:leaf>
         </ItemGroupDef>
         <ItemGroupDef OID="IG.SE" Domain="SE" Name="SE" Repeating="Yes" IsReferenceData="No"
                       SASDatasetName="SE"
                       Purpose="Tabulation"
                       def:Structure="每个受试者每个实际元素一条记录"
                       def:ArchiveLocationID="LF.SE"
                       def:StandardOID="STD.SDTMIG 3.2">
            <Description>
               <TranslatedText>受试者元素</TranslatedText>
            </Description>
            <ItemRef ItemOID="IT.SE.STUDYID" Mandatory="Yes" OrderNumber="1" KeySequence="1"
                     Role="Identifier"/>
            <ItemRef ItemOID="IT.SE.DOMAIN" Mandatory="Yes" OrderNumber="2" Role="Identifier"/>
            <ItemRef ItemOID="IT.SE.USUBJID" Mandatory="Yes" OrderNumber="3" KeySequence="2"
                     MethodOID="MT.Method.USUBJID"
                     Role="Identifier"/>
            <ItemRef ItemOID="IT.SE.SESEQ" Mandatory="Yes" OrderNumber="4"
                     MethodOID="MT.Method.SESEQ"
                     Role="Identifier"/>
            <ItemRef ItemOID="IT.SE.ETCD" Mandatory="Yes" OrderNumber="5" MethodOID="MT.Method.ETCD"
                     Role="Topic"/>
            <ItemRef ItemOID="IT.SE.ELEMENT" Mandatory="No" OrderNumber="6" KeySequence="3"
                     MethodOID="MT.Method.ELEMENT"
                     Role="Synonym Qualifier"/>
            <ItemRef ItemOID="IT.SE.TAETORD" Mandatory="No" OrderNumber="7" Role="Timing"/>
            <ItemRef ItemOID="IT.SE.EPOCH" Mandatory="No" OrderNumber="8" KeySequence="4"
                     MethodOID="MT.Method.EPOCH"
                     Role="Timing"/>
            <ItemRef ItemOID="IT.SE.SESTDTC" Mandatory="Yes" OrderNumber="9" KeySequence="5"
                     MethodOID="MT.Method.SESTDTC"
                     Role="Timing"/>
            <ItemRef ItemOID="IT.SE.SEENDTC" Mandatory="No" OrderNumber="10"
                     MethodOID="MT.Method.SEENDTC"
                     Role="Timing"/>
            <ItemRef ItemOID="IT.SE.SESTDY" Mandatory="No" OrderNumber="11"
                     MethodOID="MT.Method.SESTDY"
                     Role="Timing"/>
            <ItemRef ItemOID="IT.SE.SEENDY" Mandatory="No" OrderNumber="12"
                     MethodOID="MT.Method.SEENDY"
                     Role="Timing"/>
            <def:Class Name="SPECIAL PURPOSE"/>
            <def:leaf ID="LF.SE" xlink:href="se.xpt">
               <def:title>se.xpt</def:title>
            </def:leaf>
         </ItemGroupDef>
         <ItemGroupDef OID="IG.SV" Domain="SV" Name="SV" Repeating="Yes" IsReferenceData="No"
                       SASDatasetName="SV"
                       Purpose="Tabulation"
                       def:Structure="每个受试者每个实际访视一条记录"
                       def:ArchiveLocationID="LF.SV"
                       def:StandardOID="STD.SDTMIG 3.2">
            <Description>
               <TranslatedText>受试者访视</TranslatedText>
            </Description>
            <ItemRef ItemOID="IT.SV.STUDYID" Mandatory="Yes" OrderNumber="1" KeySequence="1"
                     Role="Identifier"/>
            <ItemRef ItemOID="IT.SV.DOMAIN" Mandatory="Yes" OrderNumber="2" Role="Identifier"/>
            <ItemRef ItemOID="IT.SV.USUBJID" Mandatory="No" OrderNumber="3" KeySequence="2"
                     MethodOID="MT.Method.USUBJID"
                     Role="Identifier"/>
            <ItemRef ItemOID="IT.SV.VISITNUM" Mandatory="Yes" OrderNumber="4" KeySequence="3"
                     MethodOID="MT.Method.VISITNUM"
                     Role="Topic"/>
            <ItemRef ItemOID="IT.SV.VISIT" Mandatory="No" OrderNumber="5"
                     MethodOID="MT.Method.VISIT"
                     Role="Synonym Qualifier"/>
            <ItemRef ItemOID="IT.SV.SVSTDTC" Mandatory="No" OrderNumber="6"
                     MethodOID="MT.Method.SVSTDTC"
                     Role="Timing"/>
            <ItemRef ItemOID="IT.SV.SVENDTC" Mandatory="No" OrderNumber="7"
                     MethodOID="MT.Method.SVENDTC"
                     Role="Timing"/>
            <ItemRef ItemOID="IT.SV.SVSTDY" Mandatory="No" OrderNumber="8"
                     MethodOID="MT.Method.SVSTDY"
                     Role="Timing"/>
            <ItemRef ItemOID="IT.SV.SVENDY" Mandatory="No" OrderNumber="9"
                     MethodOID="MT.Method.SVENDY"
                     Role="Timing"/>
            <def:Class Name="SPECIAL PURPOSE"/>
            <def:leaf ID="LF.SV" xlink:href="sv.xpt">
               <def:title>sv.xpt</def:title>
            </def:leaf>
         </ItemGroupDef>
         <ItemGroupDef OID="IG.CM" Domain="CM" Name="CM" Repeating="Yes" IsReferenceData="No"
                       SASDatasetName="CM"
                       Purpose="Tabulation"
                       def:Structure="每个受试者每次给药或每个用法一条记录"
                       def:ArchiveLocationID="LF.CM"
                       def:StandardOID="STD.SDTMIG 3.2">
            <Description>
               <TranslatedText>既往与合并用药</TranslatedText>
            </Description>
            <ItemRef ItemOID="IT.CM.STUDYID" Mandatory="Yes" OrderNumber="1" KeySequence="1"
                     Role="Identifier"/>
            <ItemRef ItemOID="IT.CM.DOMAIN" Mandatory="Yes" OrderNumber="2" Role="Identifier"/>
            <ItemRef ItemOID="IT.CM.USUBJID" Mandatory="No" OrderNumber="3" KeySequence="2"
                     MethodOID="MT.Method.USUBJID"
                     Role="Identifier"/>
            <ItemRef ItemOID="IT.CM.CMSEQ" Mandatory="Yes" OrderNumber="4" Role="Identifier"/>
            <ItemRef ItemOID="IT.CM.CMTRT" Mandatory="Yes" OrderNumber="5" KeySequence="3"
                     Role="Topic"/>
            <ItemRef ItemOID="IT.CM.CMDECOD" Mandatory="No" OrderNumber="6"
                     MethodOID="MT.Method.CMDECOD"
                     Role="Synonym Qualifier"/>
            <ItemRef ItemOID="IT.CM.CMCAT" Mandatory="No" OrderNumber="7" KeySequence="4"
                     Role="Grouping Qualifier"/>
            <ItemRef ItemOID="IT.CM.CMINDC" Mandatory="No" OrderNumber="8" Role="Record Qualifier"/>
            <ItemRef ItemOID="IT.CM.CMDOSU" Mandatory="No" OrderNumber="9" Role="Variable Qualifier"/>
            <ItemRef ItemOID="IT.CM.CMDOSFRQ" Mandatory="No" OrderNumber="10" KeySequence="7"
                     Role="Variable Qualifier"/>
            <ItemRef ItemOID="IT.CM.CMDOSTOT" Mandatory="No" OrderNumber="11" KeySequence="8"
                     Role="Record Qualifier"/>
            <ItemRef ItemOID="IT.CM.CMROUTE" Mandatory="No" OrderNumber="12" KeySequence="9"
                     Role="Variable Qualifier"/>
            <ItemRef ItemOID="IT.CM.EPOCH" Mandatory="No" OrderNumber="13"
                     MethodOID="MT.Method.EPOCH"
                     Role="Timing"/>
            <ItemRef ItemOID="IT.CM.CMSTDTC" Mandatory="No" OrderNumber="14" KeySequence="5"
                     Role="Timing"/>
            <ItemRef ItemOID="IT.CM.CMENDTC" Mandatory="No" OrderNumber="15" KeySequence="6"
                     Role="Timing"/>
            <ItemRef ItemOID="IT.CM.CMSTDY" Mandatory="No" OrderNumber="16"
                     MethodOID="MT.Method.CMSTDY"
                     Role="Timing"/>
            <ItemRef ItemOID="IT.CM.CMENDY" Mandatory="No" OrderNumber="17"
                     MethodOID="MT.Method.CMENDY"
                     Role="Timing"/>
            <def:Class Name="INTERVENTIONS"/>
            <def:leaf ID="LF.CM" xlink:href="cm.xpt">
               <def:title>cm.xpt</def:title>
            </def:leaf>
         </ItemGroupDef>
         <ItemGroupDef OID="IG.EC" Domain="EC" Name="EC" Repeating="Yes" IsReferenceData="No"
                       SASDatasetName="EC"
                       Purpose="Tabulation"
                       def:Structure="每个受试者每个方案规定的研究用药每个采集的用法每个情景模式一条记录"
                       def:ArchiveLocationID="LF.EC"
                       def:StandardOID="STD.SDTMIG 3.2">
            <Description>
               <TranslatedText>暴露采集</TranslatedText>
            </Description>
            <ItemRef ItemOID="IT.EC.STUDYID" Mandatory="Yes" OrderNumber="1" KeySequence="1"
                     Role="Identifier"/>
            <ItemRef ItemOID="IT.EC.DOMAIN" Mandatory="Yes" OrderNumber="2" Role="Identifier"/>
            <ItemRef ItemOID="IT.EC.USUBJID" Mandatory="No" OrderNumber="3" KeySequence="2"
                     MethodOID="MT.Method.USUBJID"
                     Role="Identifier"/>
            <ItemRef ItemOID="IT.EC.ECSEQ" Mandatory="Yes" OrderNumber="4"
                     MethodOID="MT.Method.ECSEQ"
                     Role="Identifier"/>
            <ItemRef ItemOID="IT.EC.ECTRT" Mandatory="Yes" OrderNumber="5" KeySequence="3"
                     MethodOID="MT.Method.ECTRT"
                     Role="Topic"/>
            <ItemRef ItemOID="IT.EC.ECDOSE" Mandatory="No" OrderNumber="6" Role="Record Qualifier"/>
            <ItemRef ItemOID="IT.EC.ECDOSU" Mandatory="No" OrderNumber="7" Role="Variable Qualifier"/>
            <ItemRef ItemOID="IT.EC.ECDOSFRM" Mandatory="No" OrderNumber="8"
                     Role="Variable Qualifier"/>
            <ItemRef ItemOID="IT.EC.ECROUTE" Mandatory="No" OrderNumber="9"
                     Role="Variable Qualifier"/>
            <ItemRef ItemOID="IT.EC.EPOCH" Mandatory="No" OrderNumber="10"
                     MethodOID="MT.Method.EPOCH"
                     Role="Timing"/>
            <ItemRef ItemOID="IT.EC.ECSTDTC" Mandatory="No" OrderNumber="11" KeySequence="4"
                     MethodOID="MT.Method.ECSTDTC"
                     Role="Timing"/>
            <ItemRef ItemOID="IT.EC.ECENDTC" Mandatory="No" OrderNumber="12"
                     MethodOID="MT.Method.ECENDTC"
                     Role="Timing"/>
            <ItemRef ItemOID="IT.EC.ECSTDY" Mandatory="No" OrderNumber="13"
                     MethodOID="MT.Method.ECSTDY"
                     Role="Timing"/>
            <ItemRef ItemOID="IT.EC.ECENDY" Mandatory="No" OrderNumber="14"
                     MethodOID="MT.Method.ECENDY"
                     Role="Timing"/>
            <def:Class Name="INTERVENTIONS"/>
            <def:leaf ID="LF.EC" xlink:href="ec.xpt">
               <def:title>ec.xpt</def:title>
            </def:leaf>
         </ItemGroupDef>
         <ItemGroupDef OID="IG.EX" Domain="EX" Name="EX" Repeating="Yes" IsReferenceData="No"
                       SASDatasetName="EX"
                       Purpose="Tabulation"
                       def:Structure="每个受试者每个研究药物每个用法一条记录"
                       def:ArchiveLocationID="LF.EX"
                       def:StandardOID="STD.SDTMIG 3.2">
            <Description>
               <TranslatedText>暴露</TranslatedText>
            </Description>
            <ItemRef ItemOID="IT.EX.STUDYID" Mandatory="Yes" OrderNumber="1" KeySequence="1"
                     Role="Identifier"/>
            <ItemRef ItemOID="IT.EX.DOMAIN" Mandatory="Yes" OrderNumber="2" Role="Identifier"/>
            <ItemRef ItemOID="IT.EX.USUBJID" Mandatory="No" OrderNumber="3" KeySequence="2"
                     MethodOID="MT.Method.USUBJID"
                     Role="Identifier"/>
            <ItemRef ItemOID="IT.EX.EXSEQ" Mandatory="Yes" OrderNumber="4"
                     MethodOID="MT.Method.EXSEQ"
                     Role="Identifier"/>
            <ItemRef ItemOID="IT.EX.EXTRT" Mandatory="Yes" OrderNumber="5" KeySequence="3"
                     MethodOID="MT.Method.EXTRT"
                     Role="Topic"/>
            <ItemRef ItemOID="IT.EX.EXDOSE" Mandatory="No" OrderNumber="6" Role="Record Qualifier"/>
            <ItemRef ItemOID="IT.EX.EXDOSU" Mandatory="No" OrderNumber="7" Role="Variable Qualifier"/>
            <ItemRef ItemOID="IT.EX.EXDOSFRM" Mandatory="No" OrderNumber="8"
                     Role="Variable Qualifier"/>
            <ItemRef ItemOID="IT.EX.EXROUTE" Mandatory="No" OrderNumber="9"
                     Role="Variable Qualifier"/>
            <ItemRef ItemOID="IT.EX.EPOCH" Mandatory="No" OrderNumber="10"
                     MethodOID="MT.Method.EPOCH"
                     Role="Timing"/>
            <ItemRef ItemOID="IT.EX.EXSTDTC" Mandatory="No" OrderNumber="11" KeySequence="4"
                     MethodOID="MT.Method.EXSTDTC"
                     Role="Timing"/>
            <ItemRef ItemOID="IT.EX.EXENDTC" Mandatory="No" OrderNumber="12"
                     MethodOID="MT.Method.EXENDTC"
                     Role="Timing"/>
            <ItemRef ItemOID="IT.EX.EXSTDY" Mandatory="No" OrderNumber="13"
                     MethodOID="MT.Method.EXSTDY"
                     Role="Timing"/>
            <ItemRef ItemOID="IT.EX.EXENDY" Mandatory="No" OrderNumber="14"
                     MethodOID="MT.Method.EXENDY"
                     Role="Timing"/>
            <def:Class Name="INTERVENTIONS"/>
            <def:leaf ID="LF.EX" xlink:href="ex.xpt">
               <def:title>ex.xpt</def:title>
            </def:leaf>
         </ItemGroupDef>
         <ItemGroupDef OID="IG.PR" Domain="PR" Name="PR" Repeating="Yes" IsReferenceData="No"
                       SASDatasetName="PR"
                       Purpose="Tabulation"
                       def:Structure="每个受试者每次诊疗操作一条记录"
                       def:ArchiveLocationID="LF.PR"
                       def:StandardOID="STD.SDTMIG 3.2">
            <Description>
               <TranslatedText>诊疗操作</TranslatedText>
            </Description>
            <ItemRef ItemOID="IT.PR.STUDYID" Mandatory="Yes" OrderNumber="1" KeySequence="1"
                     Role="Identifier"/>
            <ItemRef ItemOID="IT.PR.DOMAIN" Mandatory="Yes" OrderNumber="2" Role="Identifier"/>
            <ItemRef ItemOID="IT.PR.USUBJID" Mandatory="No" OrderNumber="3" KeySequence="2"
                     MethodOID="MT.Method.USUBJID"
                     Role="Identifier"/>
            <ItemRef ItemOID="IT.PR.PRSEQ" Mandatory="Yes" OrderNumber="4"
                     MethodOID="MT.Method.PRSEQ"
                     Role="Identifier"/>
            <ItemRef ItemOID="IT.PR.PRTRT" Mandatory="Yes" OrderNumber="5" KeySequence="3"
                     Role="Topic"/>
            <ItemRef ItemOID="IT.PR.PRCAT" Mandatory="No" OrderNumber="6" Role="Grouping Qualifier"/>
            <ItemRef ItemOID="IT.PR.PRINDC" Mandatory="No" OrderNumber="7" Role="Record Qualifier"/>
            <ItemRef ItemOID="IT.PR.PRSTDTC" Mandatory="No" OrderNumber="8" KeySequence="4"
                     Role="Timing"/>
            <ItemRef ItemOID="IT.PR.PRENDTC" Mandatory="No" OrderNumber="9" Role="Timing"/>
            <ItemRef ItemOID="IT.PR.PRSTDY" Mandatory="No" OrderNumber="10"
                     MethodOID="MT.Method.PRSTDY"
                     Role="Timing"/>
            <ItemRef ItemOID="IT.PR.PRENDY" Mandatory="No" OrderNumber="11"
                     MethodOID="MT.Method.PRENDY"
                     Role="Timing"/>
            <def:Class Name="INTERVENTIONS"/>
            <def:leaf ID="LF.PR" xlink:href="pr.xpt">
               <def:title>pr.xpt</def:title>
            </def:leaf>
         </ItemGroupDef>
         <ItemGroupDef OID="IG.AE" Domain="AE" Name="AE" Repeating="Yes" IsReferenceData="No"
                       SASDatasetName="AE"
                       Purpose="Tabulation"
                       def:Structure="每个受试者每例次不良事件一条记录"
                       def:ArchiveLocationID="LF.AE"
                       def:StandardOID="STD.SDTMIG 3.2">
            <Description>
               <TranslatedText>不良事件</TranslatedText>
            </Description>
            <ItemRef ItemOID="IT.AE.STUDYID" Mandatory="Yes" OrderNumber="1" KeySequence="1"
                     Role="Identifier"/>
            <ItemRef ItemOID="IT.AE.DOMAIN" Mandatory="Yes" OrderNumber="2" Role="Identifier"/>
            <ItemRef ItemOID="IT.AE.USUBJID" Mandatory="No" OrderNumber="3" KeySequence="2"
                     MethodOID="MT.Method.USUBJID"
                     Role="Identifier"/>
            <ItemRef ItemOID="IT.AE.AESEQ" Mandatory="Yes" OrderNumber="4" Role="Identifier"/>
            <ItemRef ItemOID="IT.AE.AETERM" Mandatory="Yes" OrderNumber="5" Role="Topic"/>
            <ItemRef ItemOID="IT.AE.AELLT" Mandatory="No" OrderNumber="6" Role="Variable Qualifier"/>
            <ItemRef ItemOID="IT.AE.AELLTCD" Mandatory="No" OrderNumber="7"
                     Role="Variable Qualifier"/>
            <ItemRef ItemOID="IT.AE.AEDECOD" Mandatory="Yes" OrderNumber="8" KeySequence="3"
                     Role="Synonym Qualifier"/>
            <ItemRef ItemOID="IT.AE.AEPTCD" Mandatory="No" OrderNumber="9" Role="Variable Qualifier"/>
            <ItemRef ItemOID="IT.AE.AEHLT" Mandatory="No" OrderNumber="10" Role="Variable Qualifier"/>
            <ItemRef ItemOID="IT.AE.AEHLTCD" Mandatory="No" OrderNumber="11"
                     Role="Variable Qualifier"/>
            <ItemRef ItemOID="IT.AE.AEHLGT" Mandatory="No" OrderNumber="12"
                     Role="Variable Qualifier"/>
            <ItemRef ItemOID="IT.AE.AEHLGTCD" Mandatory="No" OrderNumber="13"
                     Role="Variable Qualifier"/>
            <ItemRef ItemOID="IT.AE.AEBODSYS" Mandatory="No" OrderNumber="14"
                     Role="Record Qualifier"/>
            <ItemRef ItemOID="IT.AE.AEBDSYCD" Mandatory="No" OrderNumber="15"
                     Role="Variable Qualifier"/>
