{
  "study": [
    {
      "Attribute": "StudyName",
      "Value": NaN
    },
    {
      "Attribute": "StudyDescription",
      "Value": NaN
    },
    {
      "Attribute": "ProtocolName",
      "Value": NaN
    },
    {
      "Attribute": "StandardName",
      "Value": "SDTM-IG"
    },
    {
      "Attribute": "StandardVersion",
      "Value": "3.2"
    },
    {
      "Attribute": "Language",
      "Value": "en"
    },
    {
      "Attribute": NaN,
      "Value": NaN
    },
    {
      "Attribute": "Legend",
      "Value": "Highlighted cells are required for Define-XML 2.1 and can be ignored for prior versions."
    },
    {
      "Attribute": NaN,
      "Value": "Highlighted cells are used by ADaM only and can be left empty otherwise."
    }
  ],
  "datasets": [
    {
      "Dataset": "AE",
      "Label": "不良事件",
      "Class": "EVENTS",
      "SubClass": NaN,
      "Structure": "One record per adverse event per subject",
      "Key Variables": "STUDYID, USUBJID, AEDECOD, AESTDTC",
      "Standard": "SDTMIG 3.2",
      "Has No Data": "No",
      "Repeating": "Yes",
      "Reference Data": "No",
      "Comment": NaN,
      "Developer Notes": NaN
    },
    {
      "Dataset": "CM",
      "Label": "既往与合并用药",
      "Class": "INTERVENTIONS",
      "SubClass": NaN,
      "Structure": "One record per recorded medication occurrence or constant-dosing interval per subject",
      "Key Variables": "STUDYID, USUBJID, CMTRT, CMSTDTC",
      "Standard": "SDTMIG 3.2",
      "Has No Data": "No",
      "Repeating": "Yes",
      "Reference Data": "No",
      "Comment": NaN,
      "Developer Notes": NaN
    },
    {
      "Dataset": "DM",
      "Label": "人口学",
      "Class": "SPECIAL PURPOSE",
      "SubClass": NaN,
      "Structure": "One record per subject",
      "Key Variables": "STUDYID, USUBJID",
      "Standard": "SDTMIG 3.2",
      "Has No Data": "No",
      "Repeating": "No",
      "Reference Data": "No",
      "Comment": NaN,
      "Developer Notes": NaN
    },
    {
      "Dataset": "DS",
      "Label": "处置",
      "Class": "EVENTS",
      "SubClass": NaN,
      "Structure": "One record per disposition status or protocol milestone per subject",
      "Key Variables": "STUDYID, USUBJID, DSDECOD, DSSTDTC",
      "Standard": "SDTMIG 3.2",
      "Has No Data": "No",
      "Repeating": "Yes",
      "Reference Data": "No",
      "Comment": NaN,
      "Developer Notes": NaN
    },
    {
      "Dataset": "DV",
      "Label": "方案偏离",
      "Class": "EVENTS",
      "SubClass": NaN,
      "Structure": "One record per protocol deviation per subject",
      "Key Variables": "STUDYID, USUBJID, DVTERM, DVSTDTC",
      "Standard": "SDTMIG 3.2",
      "Has No Data": "No",
      "Repeating": "Yes",
      "Reference Data": "No",
      "Comment": NaN,
      "Developer Notes": NaN
    },
    {
      "Dataset": "EC",
      "Label": "暴露采集",
      "Class": "INTERVENTIONS",
      "SubClass": NaN,
      "Structure": "One record per protocol-specified study treatment, collected-dosing interval, per subject, per mood",
      "Key Variables": "STUDYID, USUBJID, ECTRT, ECSTDTC",
      "Standard": "SDTMIG 3.2",
      "Has No Data": "No",
      "Repeating": "Yes",
      "Reference Data": "No",
      "Comment": NaN,
      "Developer Notes": NaN
    },
    {
      "Dataset": "EG",
      "Label": "心电图",
      "Class": "FINDINGS",
      "SubClass": NaN,
      "Structure": "One record per ECG observation per time point per visit per subject",
      "Key Variables": "STUDYID, USUBJID, EGTESTCD, VISITNUM, EGTPTNUM",
      "Standard": "SDTMIG 3.2",
      "Has No Data": "No",
      "Repeating": "Yes",
      "Reference Data": "No",
      "Comment": NaN,
      "Developer Notes": NaN
    },
    {
      "Dataset": "EX",
      "Label": "暴露",
      "Class": "INTERVENTIONS",
      "SubClass": NaN,
      "Structure": "One record per constant dosing interval per subject",
      "Key Variables": "STUDYID, USUBJID, EXTRT, EXSTDTC",
      "Standard": "SDTMIG 3.2",
      "Has No Data": "No",
      "Repeating": "Yes",
      "Reference Data": "No",
      "Comment": NaN,
      "Developer Notes": NaN
    },
    {
      "Dataset": "IE",
      "Label": "不满足的入选/排除标准",
      "Class": "FINDINGS",
      "SubClass": NaN,
      "Structure": "One record per inclusion/exclusion criterion not met per subject",
      "Key Variables": "STUDYID, USUBJID, IETESTCD",
      "Standard": "SDTMIG 3.2",
      "Has No Data": "No",
      "Repeating": "Yes",
      "Reference Data": "No",
      "Comment": NaN,
      "Developer Notes": NaN
    },
    {
      "Dataset": "IS",
      "Label": "免疫原性检验",
      "Class": "FINDINGS",
      "SubClass": NaN,
      "Structure": "One record per test per visit per subject",
      "Key Variables": "STUDYID, USUBJID, ISTESTCD, VISITNUM, ISDTC",
      "Standard": "SDTMIG 3.2",
      "Has No Data": "No",
      "Repeating": "Yes",
      "Reference Data": "No",
      "Comment": NaN,
      "Developer Notes": NaN
    },
    {
      "Dataset": "LB",
      "Label": "实验室检查",
      "Class": "FINDINGS",
      "SubClass": NaN,
      "Structure": "One record per analyte per planned time point number per time point reference per visit per subject",
      "Key Variables": "STUDYID, USUBJID, LBTESTCD, VISITNUM",
      "Standard": "SDTMIG 3.2",
      "Has No Data": "No",
      "Repeating": "Yes",
      "Reference Data": "No",
      "Comment": NaN,
      "Developer Notes": NaN
    },
    {
      "Dataset": "MH",
      "Label": "病史",
      "Class": "EVENTS",
      "SubClass": NaN,
      "Structure": "One record per medical history event per subject",
      "Key Variables": "STUDYID, USUBJID, MHDECOD",
      "Standard": "SDTMIG 3.2",
      "Has No Data": "No",
      "Repeating": "Yes",
      "Reference Data": "No",
      "Comment": NaN,
      "Developer Notes": NaN
    },
    {
      "Dataset": "PC",
      "Label": "药代动力学浓度",
      "Class": "FINDINGS",
      "SubClass": NaN,
      "Structure": "One record per analyte per planned time point number per time point reference per visit per subject",
      "Key Variables": "STUDYID, USUBJID, PCTESTCD, VISITNUM, PCTPTREF, PCTPTNUM",
      "Standard": "SDTMIG 3.2",
      "Has No Data": "No",
      "Repeating": "Yes",
      "Reference Data": "No",
      "Comment": NaN,
      "Developer Notes": NaN
    },
    {
      "Dataset": "PE",
      "Label": "体格检查",
      "Class": "FINDINGS",
      "SubClass": NaN,
      "Structure": "One record per body system or abnormality per visit per subject",
      "Key Variables": "STUDYID, USUBJID, PETESTCD, VISITNUM",
      "Standard": "SDTMIG 3.2",
      "Has No Data": "No",
      "Repeating": "Yes",
      "Reference Data": "No",
      "Comment": NaN,
      "Developer Notes": NaN
    },
    {
      "Dataset": "PP",
      "Label": "药代动力学参数",
      "Class": "FINDINGS",
      "SubClass": NaN,
      "Structure": "One record per PK parameter per time-concentration profile per modeling method per subject",
      "Key Variables": "STUDYID, USUBJID, PPTESTCD, PPCAT",
      "Standard": "SDTMIG 3.2",
      "Has No Data": "No",
      "Repeating": "Yes",
      "Reference Data": "No",
      "Comment": NaN,
      "Developer Notes": NaN
    },
    {
      "Dataset": "PR",
      "Label": "诊疗操作",
      "Class": "INTERVENTIONS",
      "SubClass": NaN,
      "Structure": "One record per recorded procedure per occurrence per subject",
      "Key Variables": "STUDYID, USUBJID, PRTRT, PRSTDTC",
      "Standard": "SDTMIG 3.2",
      "Has No Data": "No",
      "Repeating": "Yes",
      "Reference Data": "No",
      "Comment": NaN,
      "Developer Notes": NaN
    },
    {
      "Dataset": "QS",
      "Label": "问卷与量表",
      "Class": "FINDINGS",
      "SubClass": NaN,
      "Structure": "One record per questionnaire per question per time point per visit per subject",
      "Key Variables": "STUDYID, USUBJID, QSCAT, QSTESTCD, VISITNUM",
      "Standard": "SDTMIG 3.2",
      "Has No Data": "No",
      "Repeating": "Yes",
      "Reference Data": "No",
      "Comment": NaN,
      "Developer Notes": NaN
    },
    {
      "Dataset": "RS",
      "Label": "疾病效应/状态评估",
      "Class": "FINDINGS",
      "SubClass": NaN,
      "Structure": "One record per response assessment per visit per subject per assessor",
      "Key Variables": "STUDYID, USUBJID, RSTESTCD, RSCAT, RSEVAL",
      "Standard": "SDTMIG 3.2",
      "Has No Data": "No",
      "Repeating": "Yes",
      "Reference Data": "No",
      "Comment": NaN,
      "Developer Notes": NaN
    },
    {
      "Dataset": "SE",
      "Label": "受试者元素",
      "Class": "SPECIAL PURPOSE",
      "SubClass": NaN,
      "Structure": "One record per actual element per subject",
      "Key Variables": "STUDYID, USUBJID, ETCD, SESTDTC",
      "Standard": "SDTMIG 3.2",
      "Has No Data": "No",
      "Repeating": "Yes",
      "Reference Data": "No",
      "Comment": NaN,
      "Developer Notes": NaN
    },
    {
      "Dataset": "SS",
      "Label": "受试者状态",
      "Class": "FINDINGS",
      "SubClass": NaN,
      "Structure": "One record per finding per visit per subject",
      "Key Variables": "STUDYID, USUBJID, SSTESTCD, VISITNUM",
      "Standard": "SDTMIG 3.2",
      "Has No Data": "No",
      "Repeating": "Yes",
      "Reference Data": "No",
      "Comment": NaN,
      "Developer Notes": NaN
    },
    {
      "Dataset": "SUPPAE",
      "Label": "补充修饰语数据集",
      "Class": "RELATIONSHIP",
      "SubClass": NaN,
      "Structure": "One record per IDVAR, IDVARVAL and QNAM value per subject",
      "Key Variables": "STUDYID, RDOMAIN, USUBJID, IDVAR, IDVARVAL, QNAM",
      "Standard": "SDTMIG 3.2",
      "Has No Data": "No",
      "Repeating": "Yes",
      "Reference Data": "No",
      "Comment": NaN,
      "Developer Notes": NaN
    },
    {
      "Dataset": "SUPPCM",
      "Label": "补充修饰语数据集",
      "Class": "RELATIONSHIP",
      "SubClass": NaN,
      "Structure": "One record per IDVAR, IDVARVAL and QNAM value per subject",
      "Key Variables": "STUDYID, RDOMAIN, USUBJID, IDVAR, IDVARVAL, QNAM",
      "Standard": "SDTMIG 3.2",
      "Has No Data": "No",
      "Repeating": "Yes",
      "Reference Data": "No",
      "Comment": NaN,
      "Developer Notes": NaN
    },
    {
      "Dataset": "SUPPDM",
      "Label": "补充修饰语数据集",
      "Class": "RELATIONSHIP",
      "SubClass": NaN,
      "Structure": "One record per IDVAR, IDVARVAL and QNAM value per subject",
      "Key Variables": "STUDYID, RDOMAIN, USUBJID, IDVAR, IDVARVAL, QNAM",
      "Standard": "SDTMIG 3.2",
      "Has No Data": "No",
      "Repeating": "Yes",
      "Reference Data": "No",
      "Comment": NaN,
      "Developer Notes": NaN
    },
    {
      "Dataset": "SUPPDS",
      "Label": "补充修饰语数据集",
      "Class": "RELATIONSHIP",
      "SubClass": NaN,
      "Structure": "One record per IDVAR, IDVARVAL and QNAM value per subject",
      "Key Variables": "STUDYID, RDOMAIN, USUBJID, IDVAR, IDVARVAL, QNAM",
      "Standard": "SDTMIG 3.2",
      "Has No Data": "No",
      "Repeating": "Yes",
      "Reference Data": "No",
      "Comment": NaN,
      "Developer Notes": NaN
    },
    {
      "Dataset": "SUPPDV",
      "Label": "补充修饰语数据集",
      "Class": "RELATIONSHIP",
      "SubClass": NaN,
      "Structure": "One record per IDVAR, IDVARVAL and QNAM value per subject",
      "Key Variables": "STUDYID, RDOMAIN, USUBJID, IDVAR, IDVARVAL, QNAM",
      "Standard": "SDTMIG 3.2",
      "Has No Data": "No",
      "Repeating": "Yes",
      "Reference Data": "No",
      "Comment": NaN,
      "Developer Notes": NaN
    },
    {
      "Dataset": "SUPPEC",
      "Label": "补充修饰语数据集",
      "Class": "RELATIONSHIP",
      "SubClass": NaN,
      "Structure": "One record per IDVAR, IDVARVAL and QNAM value per subject",
      "Key Variables": "STUDYID, RDOMAIN, USUBJID, IDVAR, IDVARVAL, QNAM",
      "Standard": "SDTMIG 3.2",
      "Has No Data": "No",
      "Repeating": "Yes",
      "Reference Data": "No",
      "Comment": NaN,
      "Developer Notes": NaN
    },
    {
      "Dataset": "SUPPEG",
      "Label": "补充修饰语数据集",
      "Class": "RELATIONSHIP",
      "SubClass": NaN,
      "Structure": "One record per IDVAR, IDVARVAL and QNAM value per subject",
      "Key Variables": "STUDYID, RDOMAIN, USUBJID, IDVAR, IDVARVAL, QNAM",
      "Standard": "SDTMIG 3.2",
      "Has No Data": "No",
      "Repeating": "Yes",
      "Reference Data": "No",
      "Comment": NaN,
      "Developer Notes": NaN
    },
    {
      "Dataset": "SUPPEX",
      "Label": "补充修饰语数据集",
      "Class": "RELATIONSHIP",
      "SubClass": NaN,
      "Structure": "One record per IDVAR, IDVARVAL and QNAM value per subject",
      "Key Variables": "STUDYID, RDOMAIN, USUBJID, IDVAR, IDVARVAL, QNAM",
      "Standard": "SDTMIG 3.2",
      "Has No Data": "No",
      "Repeating": "Yes",
      "Reference Data": "No",
      "Comment": NaN,
      "Developer Notes": NaN
    },
    {
      "Dataset": "SUPPIE",
      "Label": "补充修饰语数据集",
      "Class": "RELATIONSHIP",
      "SubClass": NaN,
      "Structure": "One record per IDVAR, IDVARVAL and QNAM value per subject",
      "Key Variables": "STUDYID, RDOMAIN, USUBJID, IDVAR, IDVARVAL, QNAM",
      "Standard": "SDTMIG 3.2",
      "Has No Data": "No",
      "Repeating": "Yes",
      "Reference Data": "No",
      "Comment": NaN,
      "Developer Notes": NaN
    },
    {
      "Dataset": "SUPPIS",
      "Label": "免疫原性检验",
      "Class": "RELATIONSHIP",
      "SubClass": NaN,
      "Structure": "One record per IDVAR, IDVARVAL and QNAM value per subject",
      "Key Variables": "STUDYID, RDOMAIN, USUBJID, IDVAR, IDVARVAL, QNAM",
      "Standard": "SDTMIG 3.2",
      "Has No Data": "No",
      "Repeating": "Yes",
      "Reference Data": "No",
      "Comment": NaN,
      "Developer Notes": NaN
    },
    {
      "Dataset": "SUPPLB",
      "Label": "补充修饰语数据集",
      "Class": "RELATIONSHIP",
      "SubClass": NaN,
      "Structure": "One record per IDVAR, IDVARVAL and QNAM value per subject",
      "Key Variables": "STUDYID, RDOMAIN, USUBJID, IDVAR, IDVARVAL, QNAM",
      "Standard": "SDTMIG 3.2",
      "Has No Data": "No",
      "Repeating": "Yes",
      "Reference Data": "No",
      "Comment": NaN,
      "Developer Notes": NaN
    },
    {
      "Dataset": "SUPPMH",
      "Label": "补充修饰语数据集",
      "Class": "RELATIONSHIP",
      "SubClass": NaN,
      "Structure": "One record per IDVAR, IDVARVAL and QNAM value per subject",
      "Key Variables": "STUDYID, RDOMAIN, USUBJID, IDVAR, IDVARVAL, QNAM",
      "Standard": "SDTMIG 3.2",
      "Has No Data": "No",
      "Repeating": "Yes",
      "Reference Data": "No",
      "Comment": NaN,
      "Developer Notes": NaN
    },
    {
      "Dataset": "SUPPPC",
      "Label": "补充修饰语数据集",
      "Class": "RELATIONSHIP",
      "SubClass": NaN,
      "Structure": "One record per IDVAR, IDVARVAL and QNAM value per subject",
      "Key Variables": "STUDYID, RDOMAIN, USUBJID, IDVAR, IDVARVAL, QNAM",
      "Standard": "SDTMIG 3.2",
      "Has No Data": "No",
      "Repeating": "Yes",
      "Reference Data": "No",
      "Comment": NaN,
      "Developer Notes": NaN
    },
    {
      "Dataset": "SUPPPE",
      "Label": "补充修饰语数据集",
      "Class": "RELATIONSHIP",
      "SubClass": NaN,
      "Structure": "One record per IDVAR, IDVARVAL and QNAM value per subject",
      "Key Variables": "STUDYID, RDOMAIN, USUBJID, IDVAR, IDVARVAL, QNAM",
      "Standard": "SDTMIG 3.2",
      "Has No Data": "No",
      "Repeating": "Yes",
      "Reference Data": "No",
      "Comment": NaN,
      "Developer Notes": NaN
    },
    {
      "Dataset": "SUPPPP",
      "Label": "补充修饰语数据集",
      "Class": "RELATIONSHIP",
      "SubClass": NaN,
      "Structure": "One record per IDVAR, IDVARVAL and QNAM value per subject",
      "Key Variables": "STUDYID, RDOMAIN, USUBJID, IDVAR, IDVARVAL, QNAM",
      "Standard": "SDTMIG 3.2",
      "Has No Data": "No",
      "Repeating": "Yes",
      "Reference Data": "No",
      "Comment": NaN,
      "Developer Notes": NaN
    },
    {
      "Dataset": "SUPPPR",
      "Label": "补充修饰语数据集",
      "Class": "RELATIONSHIP",
      "SubClass": NaN,
      "Structure": "One record per IDVAR, IDVARVAL and QNAM value per subject",
      "Key Variables": "STUDYID, RDOMAIN, USUBJID, IDVAR, IDVARVAL, QNAM",
      "Standard": "SDTMIG 3.2",
      "Has No Data": "No",
      "Repeating": "Yes",
      "Reference Data": "No",
      "Comment": NaN,
      "Developer Notes": NaN
    },
    {
      "Dataset": "SUPPRS",
      "Label": "补充修饰语数据集",
      "Class": "RELATIONSHIP",
      "SubClass": NaN,
      "Structure": "One record per IDVAR, IDVARVAL and QNAM value per subject",
      "Key Variables": "STUDYID, RDOMAIN, USUBJID, IDVAR, IDVARVAL, QNAM",
      "Standard": "SDTMIG 3.2",
      "Has No Data": "No",
      "Repeating": "Yes",
      "Reference Data": "No",
      "Comment": NaN,
      "Developer Notes": NaN
    },
    {
      "Dataset": "SUPPSS",
      "Label": "补充修饰语数据集",
      "Class": "RELATIONSHIP",
      "SubClass": NaN,
      "Structure": "One record per IDVAR, IDVARVAL and QNAM value per subject",
      "Key Variables": "STUDYID, RDOMAIN, USUBJID, IDVAR, IDVARVAL, QNAM",
      "Standard": "SDTMIG 3.2",
      "Has No Data": "No",
      "Repeating": "Yes",
      "Reference Data": "No",
      "Comment": NaN,
      "Developer Notes": NaN
    },
    {
      "Dataset": "SUPPSV",
      "Label": "补充修饰语数据集",
      "Class": "RELATIONSHIP",
      "SubClass": NaN,
      "Structure": "One record per IDVAR, IDVARVAL and QNAM value per subject",
      "Key Variables": "STUDYID, RDOMAIN, USUBJID, IDVAR, IDVARVAL, QNAM",
      "Standard": "SDTMIG 3.2",
      "Has No Data": "No",
      "Repeating": "Yes",
      "Reference Data": "No",
      "Comment": NaN,
      "Developer Notes": NaN
    },
    {
      "Dataset": "SUPPTR",
      "Label": "补充修饰语数据集",
      "Class": "RELATIONSHIP",
      "SubClass": NaN,
      "Structure": "One record per IDVAR, IDVARVAL and QNAM value per subject",
      "Key Variables": "STUDYID, RDOMAIN, USUBJID, IDVAR, IDVARVAL, QNAM",
      "Standard": "SDTMIG 3.2",
      "Has No Data": "No",
      "Repeating": "Yes",
      "Reference Data": "No",
      "Comment": NaN,
      "Developer Notes": NaN
    },
    {
      "Dataset": "SUPPTU",
      "Label": "补充修饰语数据集",
      "Class": "RELATIONSHIP",
      "SubClass": NaN,
      "Structure": "One record per IDVAR, IDVARVAL and QNAM value per subject",
      "Key Variables": "STUDYID, RDOMAIN, USUBJID, IDVAR, IDVARVAL, QNAM",
      "Standard": "SDTMIG 3.2",
      "Has No Data": "No",
      "Repeating": "Yes",
      "Reference Data": "No",
      "Comment": NaN,
      "Developer Notes": NaN
    },
    {
      "Dataset": "SUPPVS",
      "Label": "补充修饰语数据集",
      "Class": "RELATIONSHIP",
      "SubClass": NaN,
      "Structure": "One record per IDVAR, IDVARVAL and QNAM value per subject",
      "Key Variables": "STUDYID, RDOMAIN, USUBJID, IDVAR, IDVARVAL, QNAM",
      "Standard": "SDTMIG 3.2",
      "Has No Data": "No",
      "Repeating": "Yes",
      "Reference Data": "No",
      "Comment": NaN,
      "Developer Notes": NaN
    },
    {
      "Dataset": "SV",
      "Label": "受试者访视",
      "Class": "SPECIAL PURPOSE",
      "SubClass": NaN,
      "Structure": "One record per actual visit per subject",
      "Key Variables": "STUDYID, USUBJID, VISITNUM",
      "Standard": "SDTMIG 3.2",
      "Has No Data": "No",
      "Repeating": "Yes",
      "Reference Data": "No",
      "Comment": NaN,
      "Developer Notes": NaN
    },
    {
      "Dataset": "TA",
      "Label": "试验分组",
      "Class": "TRIAL DESIGN",
      "SubClass": NaN,
      "Structure": "One record per planned element per arm",
      "Key Variables": "STUDYID, ARMCD, TAETORD",
      "Standard": "SDTMIG 3.2",
      "Has No Data": "No",
      "Repeating": "No",
      "Reference Data": "Yes",
      "Comment": NaN,
      "Developer Notes": NaN
    },
    {
      "Dataset": "TE",
      "Label": "试验元素",
      "Class": "TRIAL DESIGN",
      "SubClass": NaN,
      "Structure": "One record per planned element",
      "Key Variables": "STUDYID, ETCD",
      "Standard": "SDTMIG 3.2",
      "Has No Data": "No",
      "Repeating": "No",
      "Reference Data": "Yes",
      "Comment": NaN,
      "Developer Notes": NaN
    },
    {
      "Dataset": "TI",
      "Label": "试验入选/排除标准",
      "Class": "TRIAL DESIGN",
      "SubClass": NaN,
      "Structure": "One record per I/E criterion",
      "Key Variables": "STUDYID, IETESTCD",
      "Standard": "SDTMIG 3.2",
      "Has No Data": "No",
      "Repeating": "No",
      "Reference Data": "Yes",
      "Comment": NaN,
      "Developer Notes": NaN
    },
    {
      "Dataset": "TR",
      "Label": "肿瘤/病灶测量",
      "Class": "FINDINGS",
      "SubClass": NaN,
      "Structure": "One record per tumor measurement/assessment per visit per subject per assessor",
      "Key Variables": "STUDYID, USUBJID, TRTESTCD, TRLNKID, TREVAL",
      "Standard": "SDTMIG 3.2",
      "Has No Data": "No",
      "Repeating": "Yes",
      "Reference Data": "No",
      "Comment": NaN,
      "Developer Notes": NaN
    },
    {
      "Dataset": "TS",
      "Label": "试验概要",
      "Class": "TRIAL DESIGN",
      "SubClass": NaN,
      "Structure": "One record per trial summary parameter value",
      "Key Variables": "STUDYID, TSPARMCD, TSSEQ",
      "Standard": "SDTMIG 3.2",
      "Has No Data": "No",
      "Repeating": "No",
      "Reference Data": "Yes",
      "Comment": NaN,
      "Developer Notes": NaN
    },
    {
      "Dataset": "TU",
      "Label": "肿瘤/病灶标识",
      "Class": "FINDINGS",
      "SubClass": NaN,
      "Structure": "One record per identified tumor per subject per assessor",
      "Key Variables": "STUDYID, USUBJID, TUTESTCD, TULNKID, TUEVAL",
      "Standard": "SDTMIG 3.2",
      "Has No Data": "No",
      "Repeating": "Yes",
      "Reference Data": "No",
      "Comment": NaN,
      "Developer Notes": NaN
    },
    {
      "Dataset": "TV",
      "Label": "试验访视",
      "Class": "TRIAL DESIGN",
      "SubClass": NaN,
      "Structure": "One record per planned visit per arm",
      "Key Variables": "STUDYID, VISITNUM, ARMCD",
      "Standard": "SDTMIG 3.2",
      "Has No Data": "No",
      "Repeating": "No",
      "Reference Data": "Yes",
      "Comment": NaN,
      "Developer Notes": NaN
    },
    {
      "Dataset": "VS",
      "Label": "生命体征",
      "Class": "FINDINGS",
      "SubClass": NaN,
      "Structure": "One record per vital sign measurement per time point per visit per subject",
      "Key Variables": "STUDYID, USUBJID, VSTESTCD, VISITNUM",
      "Standard": "SDTMIG 3.2",
      "Has No Data": "No",
      "Repeating": "Yes",
      "Reference Data": "No",
      "Comment": NaN,
      "Developer Notes": NaN
    }
  ],
  "variables": [
    {
      "Order": 1,
      "Dataset": "AE",
      "Variable": "STUDYID",
      "Label": "研究标识符",
      "Data Type": "text",
      "Length": 12.0,
      "Significant Digits": NaN,
      "Format": NaN,
      "Mandatory": "Yes",
      "Assigned Value": NaN,
      "Codelist": NaN,
      "Common": NaN,
      "Origin": NaN,
      "Source": NaN,
      "Pages": NaN,
      "Method": NaN,
      "Predecessor": NaN,
      "Role": "Identifier",
      "Has No Data": "No",
      "Comment": NaN,
      "Developer Notes": NaN
    },
    {
      "Order": 2,
      "Dataset": "AE",
      "Variable": "DOMAIN",
      "Label": "域名缩写",
      "Data Type": "text",
      "Length": 2.0,
      "Significant Digits": NaN,
      "Format": NaN,
      "Mandatory": "Yes",
      "Assigned Value": NaN,
      "Codelist": NaN,
      "Common": NaN,
      "Origin": NaN,
      "Source": NaN,
      "Pages": NaN,
      "Method": NaN,
      "Predecessor": NaN,
      "Role": "Identifier",
      "Has No Data": "No",
      "Comment": NaN,
      "Developer Notes": NaN
    },
    {
      "Order": 3,
      "Dataset": "AE",
      "Variable": "USUBJID",
      "Label": "受试者唯一标识符",
      "Data Type": "text",
      "Length": 11.0,
      "Significant Digits": NaN,
      "Format": NaN,
      "Mandatory": "No",
      "Assigned Value": NaN,
      "Codelist": NaN,
      "Common": NaN,
      "Origin": NaN,
      "Source": NaN,
      "Pages": NaN,
      "Method": NaN,
      "Predecessor": NaN,
      "Role": "Identifier",
      "Has No Data": "No",
      "Comment": NaN,
      "Developer Notes": NaN
    },
    {
      "Order": 4,
      "Dataset": "AE",
      "Variable": "AESEQ",
      "Label": "序号",
      "Data Type": "integer",
      "Length": 8.0,
      "Significant Digits": NaN,
      "Format": NaN,
      "Mandatory": "Yes",
      "Assigned Value": NaN,
      "Codelist": NaN,
      "Common": NaN,
      "Origin": NaN,
      "Source": NaN,
      "Pages": NaN,
      "Method": NaN,
      "Predecessor": NaN,
      "Role": "Identifier",
      "Has No Data": "No",
      "Comment": NaN,
      "Developer Notes": NaN
    },
    {
      "Order": 5,
      "Dataset": "AE",
      "Variable": "AETERM",
      "Label": "不良事件报告名称",
      "Data Type": "text",
      "Length": 54.0,
      "Significant Digits": NaN,
      "Format": NaN,
      "Mandatory": "Yes",
      "Assigned Value": NaN,
      "Codelist": NaN,
      "Common": NaN,
      "Origin": NaN,
      "Source": NaN,
      "Pages": NaN,
      "Method": NaN,
      "Predecessor": NaN,
      "Role": "Topic",
      "Has No Data": "No",
      "Comment": NaN,
      "Developer Notes": NaN
    },
    {
      "Order": 6,
      "Dataset": "AE",
      "Variable": "AELLT",
      "Label": "低位语",
      "Data Type": "text",
      "Length": 34.0,
      "Significant Digits": NaN,
      "Format": NaN,
      "Mandatory": "No",
      "Assigned Value": NaN,
      "Codelist": NaN,
      "Common": NaN,
      "Origin": NaN,
      "Source": NaN,
      "Pages": NaN,
      "Method": NaN,
      "Predecessor": NaN,
      "Role": "Variable Qualifier",
      "Has No Data": "No",
      "Comment": NaN,
      "Developer Notes": NaN
    },
    {
      "Order": 7,
      "Dataset": "AE",
      "Variable": "AELLTCD",
      "Label": "低位语编码",
      "Data Type": "integer",
      "Length": 8.0,
      "Significant Digits": NaN,
      "Format": NaN,
      "Mandatory": "No",
      "Assigned Value": NaN,
      "Codelist": NaN,
      "Common": NaN,
      "Origin": NaN,
      "Source": NaN,
      "Pages": NaN,
      "Method": NaN,
      "Predecessor": NaN,
      "Role": "Variable Qualifier",
      "Has No Data": "No",
      "Comment": NaN,
      "Developer Notes": NaN
    },
    {
      "Order": 8,
      "Dataset": "AE",
      "Variable": "AEDECOD",
      "Label": "标准化名称",
      "Data Type": "text",
      "Length": 34.0,
      "Significant Digits": NaN,
      "Format": NaN,
      "Mandatory": "Yes",
      "Assigned Value": NaN,
      "Codelist": NaN,
      "Common": NaN,
      "Origin": NaN,
      "Source": NaN,
      "Pages": NaN,
      "Method": NaN,
      "Predecessor": NaN,
      "Role": "Synonym Qualifier",
      "Has No Data": "No",
      "Comment": NaN,
      "Developer Notes": NaN
    },
    {
      "Order": 9,
      "Dataset": "AE",
      "Variable": "AEPTCD",
      "Label": "首选语编码",
      "Data Type": "integer",
      "Length": 8.0,
      "Significant Digits": NaN,
      "Format": NaN,
      "Mandatory": "No",
      "Assigned Value": NaN,
      "Codelist": NaN,
      "Common": NaN,
      "Origin": NaN,
      "Source": NaN,
      "Pages": NaN,
      "Method": NaN,
      "Predecessor": NaN,
      "Role": "Variable Qualifier",
      "Has No Data": "No",
      "Comment": NaN,
      "Developer Notes": NaN
    },
    {
      "Order": 10,
      "Dataset": "AE",
      "Variable": "AEHLT",
      "Label": "高位语",
      "Data Type": "text",
      "Length": 60.0,
      "Significant Digits": NaN,
      "Format": NaN,
      "Mandatory": "No",
      "Assigned Value": NaN,
      "Codelist": NaN,
      "Common": NaN,
      "Origin": NaN,
      "Source": NaN,
      "Pages": NaN,
      "Method": NaN,
      "Predecessor": NaN,
      "Role": "Variable Qualifier",
      "Has No Data": "No",
      "Comment": NaN,
      "Developer Notes": NaN
    },
    {
      "Order": 11,
      "Dataset": "AE",
      "Variable": "AEHLTCD",
      "Label": "高位语编码",
      "Data Type": "integer",
      "Length": 8.0,
      "Significant Digits": NaN,
      "Format": NaN,
      "Mandatory": "No",
      "Assigned Value": NaN,
      "Codelist": NaN,
      "Common": NaN,
      "Origin": NaN,
      "Source": NaN,
      "Pages": NaN,
      "Method": NaN,
      "Predecessor": NaN,
      "Role": "Variable Qualifier",
      "Has No Data": "No",
      "Comment": NaN,
      "Developer Notes": NaN
    },
    {
      "Order": 12,
      "Dataset": "AE",
      "Variable": "AEHLGT",
      "Label": "高位组语",
      "Data Type": "text",
      "Length": 54.0,
      "Significant Digits": NaN,
      "Format": NaN,
      "Mandatory": "No",
      "Assigned Value": NaN,
      "Codelist": NaN,
      "Common": NaN,
      "Origin": NaN,
      "Source": NaN,
      "Pages": NaN,
      "Method": NaN,
      "Predecessor": NaN,
      "Role": "Variable Qualifier",
      "Has No Data": "No",
      "Comment": NaN,
      "Developer Notes": NaN
    },
    {
      "Order": 13,
      "Dataset": "AE",
      "Variable": "AEHLGTCD",
      "Label": "高位组语编码",
      "Data Type": "integer",
      "Length": 8.0,
      "Significant Digits": NaN,
      "Format": NaN,
      "Mandatory": "No",
      "Assigned Value": NaN,
      "Codelist": NaN,
      "Common": NaN,
      "Origin": NaN,
      "Source": NaN,
      "Pages": NaN,
      "Method": NaN,
      "Predecessor": NaN,
      "Role": "Variable Qualifier",
      "Has No Data": "No",
      "Comment": NaN,
      "Developer Notes": NaN
    },
    {
      "Order": 14,
      "Dataset": "AE",
      "Variable": "AEBODSYS",
      "Label": "系统器官分类",
      "Data Type": "text",
      "Length": 69.0,
      "Significant Digits": NaN,
      "Format": NaN,
      "Mandatory": "No",
      "Assigned Value": NaN,
      "Codelist": NaN,
      "Common": NaN,
      "Origin": NaN,
      "Source": NaN,
      "Pages": NaN,
      "Method": NaN,
      "Predecessor": NaN,
      "Role": "Record Qualifier",
      "Has No Data": "No",
      "Comment": NaN,
      "Developer Notes": NaN
    },
    {
      "Order": 15,
      "Dataset": "AE",
      "Variable": "AEBDSYCD",
      "Label": "系统器官分类编码",
      "Data Type": "integer",
      "Length": 8.0,
      "Significant Digits": NaN,
      "Format": NaN,
      "Mandatory": "No",
      "Assigned Value": NaN,
      "Codelist": NaN,
      "Common": NaN,
      "Origin": NaN,
      "Source": NaN,
      "Pages": NaN,
      "Method": NaN,
      "Predecessor": NaN,
      "Role": "Variable Qualifier",
      "Has No Data": "No",
      "Comment": NaN,
      "Developer Notes": NaN
    },
    {
      "Order": 16,
      "Dataset": "AE",
      "Variable": "AESOC",
      "Label": "主系统器官分类",
      "Data Type": "text",
      "Length": 69.0,
      "Significant Digits": NaN,
      "Format": NaN,
      "Mandatory": "No",
      "Assigned Value": NaN,
      "Codelist": NaN,
      "Common": NaN,
      "Origin": NaN,
      "Source": NaN,
      "Pages": NaN,
      "Method": NaN,
      "Predecessor": NaN,
      "Role": "Variable Qualifier",
      "Has No Data": "No",
      "Comment": NaN,
      "Developer Notes": NaN
    },
    {
      "Order": 17,
      "Dataset": "AE",
      "Variable": "AESOCCD",
      "Label": "主系统器官分类编码",
      "Data Type": "integer",
      "Length": 8.0,
      "Significant Digits": NaN,
      "Format": NaN,
      "Mandatory": "No",
      "Assigned Value": NaN,
      "Codelist": NaN,
      "Common": NaN,
      "Origin": NaN,
      "Source": NaN,
      "Pages": NaN,
      "Method": NaN,
      "Predecessor": NaN,
      "Role": "Variable Qualifier",
      "Has No Data": "No",
      "Comment": NaN,
      "Developer Notes": NaN
    },
    {
      "Order": 18,
      "Dataset": "AE",
      "Variable": "AESER",
      "Label": "严重事件",
      "Data Type": "text",
      "Length": 1.0,
      "Significant Digits": NaN,
      "Format": NaN,
      "Mandatory": "No",
      "Assigned Value": NaN,
      "Codelist": NaN,
      "Common": NaN,
      "Origin": NaN,
      "Source": NaN,
      "Pages": NaN,
      "Method": NaN,
      "Predecessor": NaN,
      "Role": "Record Qualifier",
      "Has No Data": "No",
      "Comment": NaN,
      "Developer Notes": NaN
    },
    {
      "Order": 19,
      "Dataset": "AE",
      "Variable": "AEACN",
      "Label": "对研究治疗采取的措施",
      "Data Type": "text",
      "Length": 30.0,
      "Significant Digits": NaN,
      "Format": NaN,
      "Mandatory": "No",
      "Assigned Value": NaN,
      "Codelist": NaN,
      "Common": NaN,
      "Origin": NaN,
      "Source": NaN,
      "Pages": NaN,
      "Method": NaN,
      "Predecessor": NaN,
      "Role": "Record Qualifier",
      "Has No Data": "No",
      "Comment": NaN,
      "Developer Notes": NaN
    },
    {
      "Order": 20,
      "Dataset": "AE",
      "Variable": "AEREL",
      "Label": "相关性",
      "Data Type": "text",
      "Length": 15.0,
      "Significant Digits": NaN,
      "Format": NaN,
      "Mandatory": "No",
      "Assigned Value": NaN,
      "Codelist": NaN,
      "Common": NaN,
      "Origin": NaN,
      "Source": NaN,
      "Pages": NaN,
      "Method": NaN,
      "Predecessor": NaN,
      "Role": "Record Qualifier",
      "Has No Data": "No",
      "Comment": NaN,
      "Developer Notes": NaN
    },
    {
      "Order": 21,
      "Dataset": "AE",
      "Variable": "AEOUT",
      "Label": "转归",
      "Data Type": "text",
      "Length": 25.0,
      "Significant Digits": NaN,
      "Format": NaN,
      "Mandatory": "No",
      "Assigned Value": NaN,
      "Codelist": NaN,
      "Common": NaN,
      "Origin": NaN,
      "Source": NaN,
      "Pages": NaN,
      "Method": NaN,
      "Predecessor": NaN,
      "Role": "Record Qualifier",
      "Has No Data": "No",
      "Comment": NaN,
      "Developer Notes": NaN
    },
    {
      "Order": 22,
      "Dataset": "AE",
      "Variable": "AESCONG",
      "Label": "后代先天异常或致畸",
      "Data Type": "text",
      "Length": 1.0,
      "Significant Digits": NaN,
      "Format": NaN,
      "Mandatory": "No",
      "Assigned Value": NaN,
      "Codelist": NaN,
      "Common": NaN,
      "Origin": NaN,
      "Source": NaN,
      "Pages": NaN,
      "Method": NaN,
      "Predecessor": NaN,
      "Role": "Record Qualifier",
      "Has No Data": "No",
      "Comment": NaN,
      "Developer Notes": NaN
    },
    {
      "Order": 23,
      "Dataset": "AE",
      "Variable": "AESDISAB",
      "Label": "导致永久或显著的残疾或功能�",
      "Data Type": "text",
      "Length": 1.0,
      "Significant Digits": NaN,
      "Format": NaN,
      "Mandatory": "No",
      "Assigned Value": NaN,
      "Codelist": NaN,
      "Common": NaN,
      "Origin": NaN,
      "Source": NaN,
      "Pages": NaN,
      "Method": NaN,
      "Predecessor": NaN,
      "Role": "Record Qualifier",
      "Has No Data": "No",
      "Comment": NaN,
      "Developer Notes": NaN
    },
    {
      "Order": 24,
      "Dataset": "AE",
      "Variable": "AESDTH",
      "Label": "导致死亡",
      "Data Type": "text",
      "Length": 1.0,
      "Significant Digits": NaN,
      "Format": NaN,
      "Mandatory": "No",
      "Assigned Value": NaN,
      "Codelist": NaN,
      "Common": NaN,
      "Origin": NaN,
      "Source": NaN,
      "Pages": NaN,
      "Method": NaN,
      "Predecessor": NaN,
      "Role": "Record Qualifier",
      "Has No Data": "No",
      "Comment": NaN,
      "Developer Notes": NaN
    },
    {
      "Order": 25,
      "Dataset": "AE",
      "Variable": "AESHOSP",
      "Label": "导致住院或住院时间延长",
      "Data Type": "text",
      "Length": 1.0,
      "Significant Digits": NaN,
      "Format": NaN,
      "Mandatory": "No",
      "Assigned Value": NaN,
      "Codelist": NaN,
      "Common": NaN,
      "Origin": NaN,
      "Source": NaN,
      "Pages": NaN,
      "Method": NaN,
      "Predecessor": NaN,
      "Role": "Record Qualifier",
      "Has No Data": "No",
      "Comment": NaN,
      "Developer Notes": NaN
    },
    {
      "Order": 26,
      "Dataset": "AE",
      "Variable": "AESLIFE",
      "Label": "危及生命",
      "Data Type": "text",
      "Length": 1.0,
      "Significant Digits": NaN,
      "Format": NaN,
      "Mandatory": "No",
      "Assigned Value": NaN,
      "Codelist": NaN,
      "Common": NaN,
      "Origin": NaN,
      "Source": NaN,
      "Pages": NaN,
      "Method": NaN,
      "Predecessor": NaN,
      "Role": "Record Qualifier",
      "Has No Data": "No",
      "Comment": NaN,
      "Developer Notes": NaN
    },
    {
      "Order": 27,
      "Dataset": "AE",
      "Variable": "AESMIE",
      "Label": "其他重要的医学事件",
      "Data Type": "text",
      "Length": 1.0,
      "Significant Digits": NaN,
      "Format": NaN,
      "Mandatory": "No",
      "Assigned Value": NaN,
      "Codelist": NaN,
      "Common": NaN,
      "Origin": NaN,
      "Source": NaN,
      "Pages": NaN,
      "Method": NaN,
      "Predecessor": NaN,
      "Role": "Record Qualifier",
      "Has No Data": "No",
      "Comment": NaN,
      "Developer Notes": NaN
    },
    {
      "Order": 28,
      "Dataset": "AE",
      "Variable": "AETOXGR",
      "Label": "毒性分级",
      "Data Type": "text",
      "Length": 4.0,
      "Significant Digits": NaN,
      "Format": NaN,
      "Mandatory": "No",
      "Assigned Value": NaN,
      "Codelist": NaN,
      "Common": NaN,
      "Origin": NaN,
      "Source": NaN,
      "Pages": NaN,
      "Method": NaN,
      "Predecessor": NaN,
      "Role": "Record Qualifier",
      "Has No Data": "No",
      "Comment": NaN,
      "Developer Notes": NaN
    },
    {
      "Order": 29,
      "Dataset": "AE",
      "Variable": "EPOCH",
      "Label": "时期",
      "Data Type": "text",
      "Length": 9.0,
      "Significant Digits": NaN,
      "Format": NaN,
      "Mandatory": "No",
      "Assigned Value": NaN,
      "Codelist": NaN,
      "Common": NaN,
      "Origin": NaN,
      "Source": NaN,
      "Pages": NaN,
      "Method": NaN,
      "Predecessor": NaN,
      "Role": "Timing",
      "Has No Data": "No",
      "Comment": NaN,
      "Developer Notes": NaN
    },
    {
      "Order": 30,
      "Dataset": "AE",
      "Variable": "AESTDTC",
      "Label": "开始日期/时间",
      "Data Type": "datetime",
      "Length": NaN,
      "Significant Digits": NaN,
      "Format": NaN,
      "Mandatory": "No",
      "Assigned Value": NaN,
      "Codelist": NaN,
      "Common": NaN,
      "Origin": NaN,
      "Source": NaN,
      "Pages": NaN,
      "Method": NaN,
      "Predecessor": NaN,
      "Role": "Timing",
      "Has No Data": "No",
      "Comment": NaN,
      "Developer Notes": NaN
    },
    {
      "Order": 31,
      "Dataset": "AE",
      "Variable": "AEENDTC",
      "Label": "结束日期/时间",
      "Data Type": "datetime",
      "Length": NaN,
      "Significant Digits": NaN,
      "Format": NaN,
      "Mandatory": "No",
      "Assigned Value": NaN,
      "Codelist": NaN,
      "Common": NaN,
      "Origin": NaN,
      "Source": NaN,
      "Pages": NaN,
      "Method": NaN,
      "Predecessor": NaN,
      "Role": "Timing",
      "Has No Data": "No",
      "Comment": NaN,
      "Developer Notes": NaN
    },
    {
      "Order": 32,
      "Dataset": "AE",
      "Variable": "AESTDY",
      "Label": "开始日",
      "Data Type": "integer",
      "Length": 8.0,
      "Significant Digits": NaN,
      "Format": NaN,
      "Mandatory": "No",
      "Assigned Value": NaN,
      "Codelist": NaN,
      "Common": NaN,
      "Origin": NaN,
      "Source": NaN,
      "Pages": NaN,
      "Method": NaN,
      "Predecessor": NaN,
      "Role": "Timing",
      "Has No Data": "No",
      "Comment": NaN,
      "Developer Notes": NaN
    },
    {
      "Order": 33,
      "Dataset": "AE",
      "Variable": "AEENDY",
      "Label": "结束日",
      "Data Type": "integer",
      "Length": 8.0,
      "Significant Digits": NaN,
      "Format": NaN,
      "Mandatory": "No",
      "Assigned Value": NaN,
      "Codelist": NaN,
      "Common": NaN,
      "Origin": NaN,
      "Source": NaN,
      "Pages": NaN,
      "Method": NaN,
      "Predecessor": NaN,
      "Role": "Timing",
      "Has No Data": "No",
      "Comment": NaN,
      "Developer Notes": NaN
    },
    {
      "Order": 1,
      "Dataset": "CM",
      "Variable": "STUDYID",
      "Label": "研究标识符",
      "Data Type": "text",
      "Length": 12.0,
      "Significant Digits": NaN,
      "Format": NaN,
      "Mandatory": "Yes",
      "Assigned Value": NaN,
      "Codelist": NaN,
      "Common": NaN,
      "Origin": NaN,
      "Source": NaN,
      "Pages": NaN,
      "Method": NaN,
      "Predecessor": NaN,
      "Role": "Identifier",
      "Has No Data": "No",
      "Comment": NaN,
      "Developer Notes": NaN
    },
    {
      "Order": 2,
      "Dataset": "CM",
      "Variable": "DOMAIN",
      "Label": "域名缩写",
      "Data Type": "text",
      "Length": 2.0,
      "Significant Digits": NaN,
      "Format": NaN,
      "Mandatory": "Yes",
      "Assigned Value": NaN,
      "Codelist": NaN,
      "Common": NaN,
      "Origin": NaN,
      "Source": NaN,
      "Pages": NaN,
      "Method": NaN,
      "Predecessor": NaN,
      "Role": "Identifier",
      "Has No Data": "No",
      "Comment": NaN,
      "Developer Notes": NaN
    },
    {
      "Order": 3,
      "Dataset": "CM",
      "Variable": "USUBJID",
      "Label": "受试者唯一标识符",
      "Data Type": "text",
      "Length": 12.0,
      "Significant Digits": NaN,
      "Format": NaN,
      "Mandatory": "No",
      "Assigned Value": NaN,
      "Codelist": NaN,
      "Common": NaN,
      "Origin": NaN,
      "Source": NaN,
      "Pages": NaN,
      "Method": NaN,
      "Predecessor": NaN,
      "Role": "Identifier",
      "Has No Data": "No",
      "Comment": NaN,
      "Developer Notes": NaN
    },
    {
      "Order": 4,
      "Dataset": "CM",
      "Variable": "CMSEQ",
      "Label": "序号",
      "Data Type": "integer",
      "Length": 8.0,
      "Significant Digits": NaN,
      "Format": NaN,
      "Mandatory": "Yes",
      "Assigned Value": NaN,
      "Codelist": NaN,
      "Common": NaN,
      "Origin": NaN,
      "Source": NaN,
      "Pages": NaN,
      "Method": NaN,
      "Predecessor": NaN,
      "Role": "Identifier",
      "Has No Data": "No",
      "Comment": NaN,
      "Developer Notes": NaN
    },
    {
      "Order": 5,
      "Dataset": "CM",
      "Variable": "CMTRT",
      "Label": "治疗报告名称",
      "Data Type": "text",
      "Length": 64.0,
      "Significant Digits": NaN,
      "Format": NaN,
      "Mandatory": "Yes",
      "Assigned Value": NaN,
      "Codelist": NaN,
      "Common": NaN,
      "Origin": NaN,
      "Source": NaN,
      "Pages": NaN,
      "Method": NaN,
      "Predecessor": NaN,
      "Role": "Topic",
      "Has No Data": "No",
      "Comment": NaN,
      "Developer Notes": NaN
    },
    {
      "Order": 6,
      "Dataset": "CM",
      "Variable": "CMDECOD",
      "Label": "标准化名称",
      "Data Type": "text",
      "Length": 81.0,
      "Significant Digits": NaN,
      "Format": NaN,
      "Mandatory": "No",
      "Assigned Value": NaN,
      "Codelist": NaN,
      "Common": NaN,
      "Origin": NaN,
      "Source": NaN,
      "Pages": NaN,
      "Method": NaN,
      "Predecessor": NaN,
      "Role": "Synonym Qualifier",
      "Has No Data": "No",
      "Comment": NaN,
      "Developer Notes": NaN
    },
    {
      "Order": 7,
      "Dataset": "CM",
      "Variable": "CMCAT",
      "Label": "类别",
      "Data Type": "text",
      "Length": 34.0,
      "Significant Digits": NaN,
      "Format": NaN,
      "Mandatory": "No",
      "Assigned Value": NaN,
      "Codelist": NaN,
      "Common": NaN,
      "Origin": NaN,
      "Source": NaN,
      "Pages": NaN,
      "Method": NaN,
      "Predecessor": NaN,
      "Role": "Grouping Qualifier",
      "Has No Data": "No",
      "Comment": NaN,
      "Developer Notes": NaN
    },
    {
      "Order": 8,
      "Dataset": "CM",
      "Variable": "CMINDC",
      "Label": "适应症",
      "Data Type": "text",
      "Length": 36.0,
      "Significant Digits": NaN,
      "Format": NaN,
      "Mandatory": "No",
      "Assigned Value": NaN,
      "Codelist": NaN,
      "Common": NaN,
      "Origin": NaN,
      "Source": NaN,
      "Pages": NaN,
      "Method": NaN,
      "Predecessor": NaN,
      "Role": "Record Qualifier",
      "Has No Data": "No",
      "Comment": NaN,
      "Developer Notes": NaN
    },
    {
      "Order": 9,
      "Dataset": "CM",
      "Variable": "CMDOSU",
      "Label": "剂量单位",
      "Data Type": "text",
      "Length": 6.0,
      "Significant Digits": NaN,
      "Format": NaN,
      "Mandatory": "No",
      "Assigned Value": NaN,
      "Codelist": NaN,
      "Common": NaN,
      "Origin": NaN,
      "Source": NaN,
      "Pages": NaN,
      "Method": NaN,
      "Predecessor": NaN,
      "Role": "Variable Qualifier",
      "Has No Data": "No",
      "Comment": NaN,
      "Developer Notes": NaN
    },
    {
      "Order": 10,
      "Dataset": "CM",
      "Variable": "CMDOSFRQ",
      "Label": "频率",
      "Data Type": "text",
      "Length": 28.0,
      "Significant Digits": NaN,
      "Format": "$80",
      "Mandatory": "No",
      "Assigned Value": NaN,
      "Codelist": NaN,
      "Common": NaN,
      "Origin": NaN,
      "Source": NaN,
      "Pages": NaN,
      "Method": NaN,
      "Predecessor": NaN,
      "Role": "Variable Qualifier",
      "Has No Data": "No",
      "Comment": NaN,
      "Developer Notes": NaN
    },
    {
      "Order": 11,
      "Dataset": "CM",
      "Variable": "CMDOSTOT",
      "Label": "每日总剂量",
      "Data Type": "float",
      "Length": 7.0,
      "Significant Digits": 3.0,
      "Format": NaN,
      "Mandatory": "No",
      "Assigned Value": NaN,
      "Codelist": NaN,
      "Common": NaN,
      "Origin": NaN,
      "Source": NaN,
      "Pages": NaN,
      "Method": NaN,
      "Predecessor": NaN,
      "Role": "Record Qualifier",
      "Has No Data": "No",
      "Comment": NaN,
      "Developer Notes": NaN
    },
    {
      "Order": 12,
      "Dataset": "CM",
      "Variable": "CMROUTE",
      "Label": "给药途径",
      "Data Type": "text",
      "Length": 12.0,
      "Significant Digits": NaN,
      "Format": "$40",
      "Mandatory": "No",
      "Assigned Value": NaN,
      "Codelist": NaN,
      "Common": NaN,
      "Origin": NaN,
      "Source": NaN,
      "Pages": NaN,
      "Method": NaN,
      "Predecessor": NaN,
      "Role": "Variable Qualifier",
      "Has No Data": "No",
      "Comment": NaN,
      "Developer Notes": NaN
    },
    {
      "Order": 13,
      "Dataset": "CM",
      "Variable": "EPOCH",
      "Label": "时期",
      "Data Type": "text",
      "Length": 9.0,
      "Significant Digits": NaN,
      "Format": NaN,
      "Mandatory": "No",
      "Assigned Value": NaN,
      "Codelist": NaN,
      "Common": NaN,
      "Origin": NaN,
      "Source": NaN,
      "Pages": NaN,
      "Method": NaN,
      "Predecessor": NaN,
      "Role": "Timing",
      "Has No Data": "No",
      "Comment": NaN,
      "Developer Notes": NaN
    },
    {
      "Order": 14,
      "Dataset": "CM",
      "Variable": "CMSTDTC",
      "Label": "开始日期/时间",
      "Data Type": "datetime",
      "Length": NaN,
      "Significant Digits": NaN,
      "Format": "$20",
      "Mandatory": "No",
      "Assigned Value": NaN,
      "Codelist": NaN,
      "Common": NaN,
      "Origin": NaN,
      "Source": NaN,
      "Pages": NaN,
      "Method": NaN,
      "Predecessor": NaN,
      "Role": "Timing",
      "Has No Data": "No",
      "Comment": NaN,
      "Developer Notes": NaN
    },
    {
      "Order": 15,
      "Dataset": "CM",
      "Variable": "CMENDTC",
      "Label": "结束日期/时间",
      "Data Type": "datetime",
      "Length": NaN,
      "Significant Digits": NaN,
      "Format": "$20",
      "Mandatory": "No",
      "Assigned Value": NaN,
      "Codelist": NaN,
      "Common": NaN,
      "Origin": NaN,
      "Source": NaN,
      "Pages": NaN,
      "Method": NaN,
      "Predecessor": NaN,
      "Role": "Timing",
      "Has No Data": "No",
      "Comment": NaN,
      "Developer Notes": NaN
    },
    {
      "Order": 16,
      "Dataset": "CM",
      "Variable": "CMSTDY",
      "Label": "开始日",
      "Data Type": "integer",
      "Length": 8.0,
      "Significant Digits": NaN,
      "Format": NaN,
      "Mandatory": "No",
      "Assigned Value": NaN,
      "Codelist": NaN,
      "Common": NaN,
      "Origin": NaN,
      "Source": NaN,
      "Pages": NaN,
      "Method": NaN,
      "Predecessor": NaN,
      "Role": "Timing",
      "Has No Data": "No",
      "Comment": NaN,
      "Developer Notes": NaN
    },
    {
      "Order": 17,
      "Dataset": "CM",
      "Variable": "CMENDY",
      "Label": "结束日",
      "Data Type": "integer",
      "Length": 8.0,
      "Significant Digits": NaN,
      "Format": NaN,
      "Mandatory": "No",
      "Assigned Value": NaN,
      "Codelist": NaN,
      "Common": NaN,
      "Origin": NaN,
      "Source": NaN,
      "Pages": NaN,
      "Method": NaN,
      "Predecessor": NaN,
      "Role": "Timing",
      "Has No Data": "No",
      "Comment": NaN,
      "Developer Notes": NaN
    },
    {
      "Order": 1,
      "Dataset": "DM",
      "Variable": "STUDYID",
      "Label": "研究标识符",
      "Data Type": "text",
      "Length": 12.0,
      "Significant Digits": NaN,
      "Format": NaN,
      "Mandatory": "Yes",
      "Assigned Value": NaN,
      "Codelist": NaN,
      "Common": NaN,
      "Origin": NaN,
      "Source": NaN,
      "Pages": NaN,
      "Method": NaN,
      "Predecessor": NaN,
      "Role": "Identifier",
      "Has No Data": "No",
      "Comment": NaN,
      "Developer Notes": NaN
    },
    {
      "Order": 2,
      "Dataset": "DM",
      "Variable": "DOMAIN",
      "Label": "域名缩写",
      "Data Type": "text",
      "Length": 2.0,
      "Significant Digits": NaN,
      "Format": NaN,
      "Mandatory": "Yes",
      "Assigned Value": NaN,
      "Codelist": NaN,
      "Common": NaN,
      "Origin": NaN,
      "Source": NaN,
      "Pages": NaN,
      "Method": NaN,
      "Predecessor": NaN,
      "Role": "Identifier",
      "Has No Data": "No",
      "Comment": NaN,
      "Developer Notes": NaN
    },
    {
      "Order": 3,
      "Dataset": "DM",
      "Variable": "USUBJID",
      "Label": "受试者唯一标识符",
      "Data Type": "text",
      "Length": 12.0,
      "Significant Digits": NaN,
      "Format": NaN,
      "Mandatory": "Yes",
      "Assigned Value": NaN,
      "Codelist": NaN,
      "Common": NaN,
      "Origin": NaN,
      "Source": NaN,
      "Pages": NaN,
      "Method": NaN,
      "Predecessor": NaN,
      "Role": "Identifier",
      "Has No Data": "No",
      "Comment": NaN,
      "Developer Notes": NaN
    },
    {
      "Order": 4,
      "Dataset": "DM",
      "Variable": "SUBJID",
      "Label": "受试者标识符",
      "Data Type": "text",
      "Length": 7.0,
      "Significant Digits": NaN,
      "Format": NaN,
      "Mandatory": "Yes",
      "Assigned Value": NaN,
      "Codelist": NaN,
      "Common": NaN,
      "Origin": NaN,
      "Source": NaN,
      "Pages": NaN,
      "Method": NaN,
      "Predecessor": NaN,
      "Role": "Topic",
      "Has No Data": "No",
      "Comment": NaN,
      "Developer Notes": NaN
    },
    {
      "Order": 5,
      "Dataset": "DM",
      "Variable": "RFSTDTC",
      "Label": "受试者参照开始日期/时间",
      "Data Type": "datetime",
      "Length": NaN,
      "Significant Digits": NaN,
      "Format": NaN,
      "Mandatory": "No",
      "Assigned Value": NaN,
      "Codelist": NaN,
      "Common": NaN,
      "Origin": NaN,
      "Source": NaN,
      "Pages": NaN,
      "Method": NaN,
      "Predecessor": NaN,
      "Role": "Record Qualifier",
      "Has No Data": "No",
      "Comment": NaN,
      "Developer Notes": NaN
    },
    {
      "Order": 6,
      "Dataset": "DM",
      "Variable": "RFENDTC",
      "Label": "受试者参照结束日期/时间",
      "Data Type": "datetime",
      "Length": NaN,
      "Significant Digits": NaN,
      "Format": NaN,
      "Mandatory": "No",
      "Assigned Value": NaN,
      "Codelist": NaN,
      "Common": NaN,
      "Origin": NaN,
      "Source": NaN,
      "Pages": NaN,
      "Method": NaN,
      "Predecessor": NaN,
      "Role": "Record Qualifier",
      "Has No Data": "No",
      "Comment": NaN,
      "Developer Notes": NaN
    },
    {
      "Order": 7,
      "Dataset": "DM",
      "Variable": "RFXSTDTC",
      "Label": "首次研究治疗日期/时间",
      "Data Type": "datetime",
      "Length": NaN,
      "Significant Digits": NaN,
      "Format": NaN,
      "Mandatory": "No",
      "Assigned Value": NaN,
      "Codelist": NaN,
      "Common": NaN,
      "Origin": NaN,
      "Source": NaN,
      "Pages": NaN,
      "Method": NaN,
      "Predecessor": NaN,
      "Role": "Record Qualifier",
      "Has No Data": "No",
      "Comment": NaN,
      "Developer Notes": NaN
    },
    {
      "Order": 8,
      "Dataset": "DM",
      "Variable": "RFXENDTC",
      "Label": "末次研究治疗日期/时间",
      "Data Type": "datetime",
      "Length": NaN,
      "Significant Digits": NaN,
      "Format": NaN,
      "Mandatory": "No",
      "Assigned Value": NaN,
      "Codelist": NaN,
      "Common": NaN,
      "Origin": NaN,
      "Source": NaN,
      "Pages": NaN,
      "Method": NaN,
      "Predecessor": NaN,
      "Role": "Record Qualifier",
      "Has No Data": "No",
      "Comment": NaN,
      "Developer Notes": NaN
    },
    {
      "Order": 9,
      "Dataset": "DM",
      "Variable": "RFICDTC",
      "Label": "知情同意日期/时间",
      "Data Type": "datetime",
      "Length": NaN,
      "Significant Digits": NaN,
      "Format": NaN,
      "Mandatory": "No",
      "Assigned Value": NaN,
      "Codelist": NaN,
      "Common": NaN,
      "Origin": NaN,
      "Source": NaN,
      "Pages": NaN,
      "Method": NaN,
      "Predecessor": NaN,
      "Role": "Record Qualifier",
      "Has No Data": "No",
      "Comment": NaN,
      "Developer Notes": NaN
    },
    {
      "Order": 10,
      "Dataset": "DM",
      "Variable": "RFPENDTC",
      "Label": "参与结束日期/时间",
      "Data Type": "datetime",
      "Length": NaN,
      "Significant Digits": NaN,
      "Format": NaN,
      "Mandatory": "No",
      "Assigned Value": NaN,
      "Codelist": NaN,
      "Common": NaN,
      "Origin": NaN,
      "Source": NaN,
      "Pages": NaN,
      "Method": NaN,
      "Predecessor": NaN,
      "Role": "Record Qualifier",
      "Has No Data": "No",
      "Comment": NaN,
      "Developer Notes": NaN
    },
    {
      "Order": 11,
      "Dataset": "DM",
      "Variable": "DTHDTC",
      "Label": "死亡日期/时间",
      "Data Type": "datetime",
      "Length": NaN,
      "Significant Digits": NaN,
      "Format": NaN,
      "Mandatory": "No",
      "Assigned Value": NaN,
      "Codelist": NaN,
      "Common": NaN,
      "Origin": NaN,
      "Source": NaN,
      "Pages": NaN,
      "Method": NaN,
      "Predecessor": NaN,
      "Role": "Record Qualifier",
      "Has No Data": "No",
      "Comment": NaN,
      "Developer Notes": NaN
    },
    {
      "Order": 12,
      "Dataset": "DM",
      "Variable": "DTHFL",
      "Label": "死亡标帜",
      "Data Type": "text",
      "Length": 1.0,
      "Significant Digits": NaN,
      "Format": NaN,
      "Mandatory": "No",
      "Assigned Value": NaN,
      "Codelist": NaN,
      "Common": NaN,
      "Origin": NaN,
      "Source": NaN,
      "Pages": NaN,
      "Method": NaN,
      "Predecessor": NaN,
      "Role": "Record Qualifier",
      "Has No Data": "No",
      "Comment": NaN,
      "Developer Notes": NaN
    },
    {
      "Order": 13,
      "Dataset": "DM",
      "Variable": "SITEID",
      "Label": "研究中心标识符",
      "Data Type": "text",
      "Length": 2.0,
      "Significant Digits": NaN,
      "Format": NaN,
      "Mandatory": "Yes",
      "Assigned Value": NaN,
      "Codelist": NaN,
      "Common": NaN,
      "Origin": NaN,
      "Source": NaN,
      "Pages": NaN,
      "Method": NaN,
      "Predecessor": NaN,
      "Role": "Record Qualifier",
      "Has No Data": "No",
      "Comment": NaN,
      "Developer Notes": NaN
    },
    {
      "Order": 14,
      "Dataset": "DM",
      "Variable": "BRTHDTC",
      "Label": "出生日期/时间",
      "Data Type": "datetime",
      "Length": NaN,
      "Significant Digits": NaN,
      "Format": NaN,
      "Mandatory": "No",
      "Assigned Value": NaN,
      "Codelist": NaN,
      "Common": NaN,
      "Origin": NaN,
      "Source": NaN,
      "Pages": NaN,
      "Method": NaN,
      "Predecessor": NaN,
      "Role": "Record Qualifier",
      "Has No Data": "No",
      "Comment": NaN,
      "Developer Notes": NaN
    },
    {
      "Order": 15,
      "Dataset": "DM",
      "Variable": "AGE",
      "Label": "年龄",
      "Data Type": "integer",
      "Length": 8.0,
      "Significant Digits": NaN,
      "Format": NaN,
      "Mandatory": "No",
      "Assigned Value": NaN,
      "Codelist": NaN,
      "Common": NaN,
      "Origin": NaN,
      "Source": NaN,
      "Pages": NaN,
      "Method": NaN,
      "Predecessor": NaN,
      "Role": "Record Qualifier",
      "Has No Data": "No",
      "Comment": NaN,
      "Developer Notes": NaN
    },
    {
      "Order": 16,
      "Dataset": "DM",
      "Variable": "AGEU",
      "Label": "年龄单位",
      "Data Type": "text",
      "Length": 6.0,
      "Significant Digits": NaN,
      "Format": NaN,
      "Mandatory": "No",
      "Assigned Value": NaN,
      "Codelist": NaN,
      "Common": NaN,
      "Origin": NaN,
      "Source": NaN,
      "Pages": NaN,
      "Method": NaN,
      "Predecessor": NaN,
      "Role": "Variable Qualifier",
      "Has No Data": "No",
      "Comment": NaN,
      "Developer Notes": NaN
    },
    {
      "Order": 17,
      "Dataset": "DM",
      "Variable": "SEX",
      "Label": "性别",
      "Data Type": "text",
      "Length": 3.0,
      "Significant Digits": NaN,
      "Format": NaN,
      "Mandatory": "Yes",
      "Assigned Value": NaN,
      "Codelist": NaN,
      "Common": NaN,
      "Origin": NaN,
      "Source": NaN,
      "Pages": NaN,
      "Method": NaN,
      "Predecessor": NaN,
      "Role": "Record Qualifier",
      "Has No Data": "No",
      "Comment": NaN,
      "Developer Notes": NaN
    },
    {
      "Order": 18,
      "Dataset": "DM",
      "Variable": "RACE",
      "Label": "种族",
      "Data Type": "text",
      "Length": 5.0,
      "Significant Digits": NaN,
      "Format": NaN,
      "Mandatory": "No",
      "Assigned Value": NaN,
      "Codelist": NaN,
      "Common": NaN,
      "Origin": NaN,
      "Source": NaN,
      "Pages": NaN,
      "Method": NaN,
      "Predecessor": NaN,
      "Role": "Record Qualifier",
      "Has No Data": "No",
      "Comment": NaN,
      "Developer Notes": NaN
    },
    {
      "Order": 19,
      "Dataset": "DM",
      "Variable": "ETHNIC",
      "Label": "族群",
      "Data Type": "text",
      "Length": 6.0,
      "Significant Digits": NaN,
      "Format": NaN,
      "Mandatory": "No",
      "Assigned Value": NaN,
      "Codelist": NaN,
      "Common": NaN,
      "Origin": NaN,
      "Source": NaN,
      "Pages": NaN,
      "Method": NaN,
      "Predecessor": NaN,
      "Role": "Record Qualifier",
      "Has No Data": "No",
      "Comment": NaN,
      "Developer Notes": NaN
    },
    {
      "Order": 20,
      "Dataset": "DM",
      "Variable": "ARMCD",
      "Label": "计划分组编码",
      "Data Type": "text",
      "Length": 8.0,
      "Significant Digits": NaN,
      "Format": NaN,
      "Mandatory": "Yes",
      "Assigned Value": NaN,
      "Codelist": NaN,
      "Common": NaN,
      "Origin": NaN,
      "Source": NaN,
      "Pages": NaN,
      "Method": NaN,
      "Predecessor": NaN,
      "Role": "Record Qualifier",
      "Has No Data": "No",
      "Comment": NaN,
      "Developer Notes": NaN
    },
    {
      "Order": 21,
      "Dataset": "DM",
      "Variable": "ARM",
      "Label": "计划分组描述",
      "Data Type": "text",
      "Length": 15.0,
      "Significant Digits": NaN,
      "Format": NaN,
      "Mandatory": "Yes",
      "Assigned Value": NaN,
      "Codelist": NaN,
      "Common": NaN,
      "Origin": NaN,
      "Source": NaN,
      "Pages": NaN,
      "Method": NaN,
      "Predecessor": NaN,
      "Role": "Synonym Qualifier",
      "Has No Data": "No",
      "Comment": NaN,
      "Developer Notes": NaN
    },
    {
      "Order": 22,
      "Dataset": "DM",
      "Variable": "ACTARMCD",
      "Label": "实际分组编码",
      "Data Type": "text",
      "Length": 8.0,
      "Significant Digits": NaN,
      "Format": NaN,
      "Mandatory": "Yes",
      "Assigned Value": NaN,
      "Codelist": NaN,
      "Common": NaN,
      "Origin": NaN,
      "Source": NaN,
      "Pages": NaN,
      "Method": NaN,
      "Predecessor": NaN,
      "Role": "Record Qualifier",
      "Has No Data": "No",
      "Comment": NaN,
      "Developer Notes": NaN
    },
    {
      "Order": 23,
      "Dataset": "DM",
      "Variable": "ACTARM",
      "Label": "实际分组描述",
      "Data Type": "text",
      "Length": 15.0,
      "Significant Digits": NaN,
      "Format": NaN,
      "Mandatory": "Yes",
      "Assigned Value": NaN,
      "Codelist": NaN,
      "Common": NaN,
      "Origin": NaN,
      "Source": NaN,
      "Pages": NaN,
      "Method": NaN,
      "Predecessor": NaN,
      "Role": "Synonym Qualifier",
      "Has No Data": "No",
      "Comment": NaN,
      "Developer Notes": NaN
    },
    {
      "Order": 24,
      "Dataset": "DM",
      "Variable": "COUNTRY",
      "Label": "国家",
      "Data Type": "text",
      "Length": 3.0,
      "Significant Digits": NaN,
      "Format": NaN,
      "Mandatory": "Yes",
      "Assigned Value": NaN,
      "Codelist": NaN,
      "Common": NaN,
      "Origin": NaN,
      "Source": NaN,
      "Pages": NaN,
      "Method": NaN,
      "Predecessor": NaN,
      "Role": "Record Qualifier",
      "Has No Data": "No",
      "Comment": NaN,
      "Developer Notes": NaN
    },
    {
      "Order": 1,
      "Dataset": "DS",
      "Variable": "STUDYID",
      "Label": "研究标识符",
      "Data Type": "text",
      "Length": 12.0,
      "Significant Digits": NaN,
      "Format": NaN,
      "Mandatory": "Yes",
      "Assigned Value": NaN,
      "Codelist": NaN,
      "Common": NaN,
      "Origin": NaN,
      "Source": NaN,
      "Pages": NaN,
      "Method": NaN,
      "Predecessor": NaN,
      "Role": "Identifier",
      "Has No Data": "No",
      "Comment": NaN,
      "Developer Notes": NaN
    },
    {
      "Order": 2,
      "Dataset": "DS",
      "Variable": "DOMAIN",
      "Label": "域名缩写",
      "Data Type": "text",
      "Length": 2.0,
      "Significant Digits": NaN,
      "Format": NaN,
      "Mandatory": "Yes",
      "Assigned Value": NaN,
      "Codelist": NaN,
      "Common": NaN,
      "Origin": NaN,
      "Source": NaN,
      "Pages": NaN,
      "Method": NaN,
      "Predecessor": NaN,
      "Role": "Identifier",
      "Has No Data": "No",
      "Comment": NaN,
      "Developer Notes": NaN
    },
    {
      "Order": 3,
      "Dataset": "DS",
      "Variable": "USUBJID",
      "Label": "受试者唯一标识符",
      "Data Type": "text",
      "Length": 12.0,
      "Significant Digits": NaN,
      "Format": NaN,
      "Mandatory": "No",
      "Assigned Value": NaN,
      "Codelist": NaN,
      "Common": NaN,
      "Origin": NaN,
      "Source": NaN,
      "Pages": NaN,
      "Method": NaN,
      "Predecessor": NaN,
      "Role": "Identifier",
      "Has No Data": "No",
      "Comment": NaN,
      "Developer Notes": NaN
    },
    {
      "Order": 4,
      "Dataset": "DS",
      "Variable": "DSSEQ",
      "Label": "序号",
      "Data Type": "integer",
      "Length": 8.0,
      "Significant Digits": NaN,
      "Format": NaN,
      "Mandatory": "Yes",
      "Assigned Value": NaN,
      "Codelist": NaN,
      "Common": NaN,
      "Origin": NaN,
      "Source": NaN,
      "Pages": NaN,
      "Method": NaN,
      "Predecessor": NaN,
      "Role": "Identifier",
      "Has No Data": "No",
      "Comment": NaN,
      "Developer Notes": NaN
    },
    {
      "Order": 5,
      "Dataset": "DS",
      "Variable": "DSTERM",
      "Label": "受试者分布事件报告名称",
      "Data Type": "text",
      "Length": 18.0,
      "Significant Digits": NaN,
      "Format": "$40",
      "Mandatory": "Yes",
      "Assigned Value": NaN,
      "Codelist": NaN,
      "Common": NaN,
      "Origin": NaN,
      "Source": NaN,
      "Pages": NaN,
      "Method": NaN,
      "Predecessor": NaN,
      "Role": "Topic",
      "Has No Data": "No",
      "Comment": NaN,
      "Developer Notes": NaN
    },
    {
      "Order": 6,
      "Dataset": "DS",
      "Variable": "DSDECOD",
      "Label": "标准化名称",
      "Data Type": "text",
      "Length": 18.0,
      "Significant Digits": NaN,
      "Format": "$40",
      "Mandatory": "Yes",
      "Assigned Value": NaN,
      "Codelist": NaN,
      "Common": NaN,
      "Origin": NaN,
      "Source": NaN,
      "Pages": NaN,
      "Method": NaN,
      "Predecessor": NaN,
      "Role": "Synonym Qualifier",
      "Has No Data": "No",
      "Comment": NaN,
      "Developer Notes": NaN
    },
    {
      "Order": 7,
      "Dataset": "DS",
      "Variable": "DSCAT",
      "Label": "类别",
      "Data Type": "text",
      "Length": 18.0,
      "Significant Digits": NaN,
      "Format": NaN,
      "Mandatory": "No",
      "Assigned Value": NaN,
      "Codelist": NaN,
      "Common": NaN,
      "Origin": NaN,
      "Source": NaN,
      "Pages": NaN,
      "Method": NaN,
      "Predecessor": NaN,
      "Role": "Grouping Qualifier",
      "Has No Data": "No",
      "Comment": NaN,
      "Developer Notes": NaN
    },
    {
      "Order": 8,
      "Dataset": "DS",
      "Variable": "EPOCH",
      "Label": "时期",
      "Data Type": "text",
      "Length": 9.0,
      "Significant Digits": NaN,
      "Format": NaN,
      "Mandatory": "No",
      "Assigned Value": NaN,
      "Codelist": NaN,
      "Common": NaN,
      "Origin": NaN,
      "Source": NaN,
      "Pages": NaN,
      "Method": NaN,
      "Predecessor": NaN,
      "Role": "Timing",
      "Has No Data": "No",
      "Comment": NaN,
      "Developer Notes": NaN
    },
    {
      "Order": 9,
      "Dataset": "DS",
      "Variable": "DSSTDTC",
      "Label": "开始日期/时间",
      "Data Type": "datetime",
      "Length": NaN,
      "Significant Digits": NaN,
      "Format": "$20",
      "Mandatory": "No",
      "Assigned Value": NaN,
      "Codelist": NaN,
      "Common": NaN,
      "Origin": NaN,
      "Source": NaN,
      "Pages": NaN,
      "Method": NaN,
      "Predecessor": NaN,
      "Role": "Timing",
      "Has No Data": "No",
      "Comment": NaN,
      "Developer Notes": NaN
    },
    {
      "Order": 10,
      "Dataset": "DS",
      "Variable": "DSSTDY",
      "Label": "开始日",
      "Data Type": "integer",
      "Length": 8.0,
      "Significant Digits": NaN,
      "Format": NaN,
      "Mandatory": "No",
      "Assigned Value": NaN,
      "Codelist": NaN,
      "Common": NaN,
      "Origin": NaN,
      "Source": NaN,
      "Pages": NaN,
      "Method": NaN,
      "Predecessor": NaN,
      "Role": "Timing",
      "Has No Data": "No",
      "Comment": NaN,
      "Developer Notes": NaN
    },
    {
      "Order": 1,
      "Dataset": "DV",
      "Variable": "STUDYID",
      "Label": "研究标识符",
      "Data Type": "text",
      "Length": 12.0,
      "Significant Digits": NaN,
      "Format": NaN,
      "Mandatory": "Yes",
      "Assigned Value": NaN,
      "Codelist": NaN,
      "Common": NaN,
      "Origin": NaN,
      "Source": NaN,
      "Pages": NaN,
      "Method": NaN,
      "Predecessor": NaN,
      "Role": "Identifier",
      "Has No Data": "No",
      "Comment": NaN,
      "Developer Notes": NaN
    },
    {
      "Order": 2,
      "Dataset": "DV",
      "Variable": "DOMAIN",
      "Label": "域名缩写",
      "Data Type": "text",
      "Length": 2.0,
      "Significant Digits": NaN,
      "Format": NaN,
      "Mandatory": "Yes",
      "Assigned Value": NaN,
      "Codelist": NaN,
      "Common": NaN,
      "Origin": NaN,
      "Source": NaN,
      "Pages": NaN,
      "Method": NaN,
      "Predecessor": NaN,
      "Role": "Identifier",
      "Has No Data": "No",
      "Comment": NaN,
      "Developer Notes": NaN
    },
    {
      "Order": 3,
      "Dataset": "DV",
      "Variable": "USUBJID",
      "Label": "受试者唯一标识符",
      "Data Type": "text",
      "Length": 12.0,
      "Significant Digits": NaN,
      "Format": NaN,
      "Mandatory": "No",
      "Assigned Value": NaN,
      "Codelist": NaN,
      "Common": NaN,
      "Origin": NaN,
      "Source": NaN,
      "Pages": NaN,
      "Method": NaN,
      "Predecessor": NaN,
      "Role": "Identifier",
      "Has No Data": "No",
      "Comment": NaN,
      "Developer Notes": NaN
    },
    {
      "Order": 4,
      "Dataset": "DV",
      "Variable": "DVSEQ",
      "Label": "序号",
      "Data Type": "integer",
      "Length": 8.0,
      "Significant Digits": NaN,
      "Format": NaN,
      "Mandatory": "Yes",
      "Assigned Value": NaN,
      "Codelist": NaN,
      "Common": NaN,
      "Origin": NaN,
      "Source": NaN,
      "Pages": NaN,
      "Method": NaN,
      "Predecessor": NaN,
      "Role": "Identifier",
      "Has No Data": "No",
      "Comment": NaN,
      "Developer Notes": NaN
    },
    {
      "Order": 5,
      "Dataset": "DV",
      "Variable": "DVTERM",
      "Label": "方案偏离报告名称",
      "Data Type": "text",
      "Length": 200.0,
      "Significant Digits": NaN,
      "Format": NaN,
      "Mandatory": "Yes",
      "Assigned Value": NaN,
      "Codelist": NaN,
      "Common": NaN,
      "Origin": NaN,
      "Source": NaN,
      "Pages": NaN,
      "Method": NaN,
      "Predecessor": NaN,
      "Role": "Topic",
      "Has No Data": "No",
      "Comment": NaN,
      "Developer Notes": NaN
    },
    {
      "Order": 6,
      "Dataset": "DV",
      "Variable": "DVCAT",
      "Label": "类别",
      "Data Type": "text",
      "Length": 12.0,
      "Significant Digits": NaN,
      "Format": "$12",
      "Mandatory": "No",
      "Assigned Value": NaN,
      "Codelist": NaN,
      "Common": NaN,
      "Origin": NaN,
      "Source": NaN,
      "Pages": NaN,
      "Method": NaN,
      "Predecessor": NaN,
      "Role": "Grouping Qualifier",
      "Has No Data": "No",
      "Comment": NaN,
      "Developer Notes": NaN
    },
    {
      "Order": 7,
      "Dataset": "DV",
      "Variable": "DVSCAT",
      "Label": "子类",
      "Data Type": "text",
      "Length": 30.0,
      "Significant Digits": NaN,
      "Format": "$30",
      "Mandatory": "No",
      "Assigned Value": NaN,
      "Codelist": NaN,
      "Common": NaN,
      "Origin": NaN,
      "Source": NaN,
      "Pages": NaN,
      "Method": NaN,
      "Predecessor": NaN,
      "Role": "Grouping Qualifier",
      "Has No Data": "No",
      "Comment": NaN,
      "Developer Notes": NaN
    },
    {
      "Order": 8,
      "Dataset": "DV",
      "Variable": "DVSTDTC",
      "Label": "开始日期/时间",
      "Data Type": "datetime",
      "Length": NaN,
      "Significant Digits": NaN,
      "Format": NaN,
      "Mandatory": "No",
      "Assigned Value": NaN,
      "Codelist": NaN,
      "Common": NaN,
      "Origin": NaN,
      "Source": NaN,
      "Pages": NaN,
      "Method": NaN,
      "Predecessor": NaN,
      "Role": "Timing",
      "Has No Data": "No",
      "Comment": NaN,
      "Developer Notes": NaN
    },
    {
      "Order": 1,
      "Dataset": "EC",
      "Variable": "STUDYID",
      "Label": "研究标识符",
      "Data Type": "text",
      "Length": 12.0,
      "Significant Digits": NaN,
      "Format": NaN,
      "Mandatory": "Yes",
      "Assigned Value": NaN,
      "Codelist": NaN,
      "Common": NaN,
      "Origin": NaN,
      "Source": NaN,
      "Pages": NaN,
      "Method": NaN,
      "Predecessor": NaN,
      "Role": "Identifier",
      "Has No Data": "No",
      "Comment": NaN,
      "Developer Notes": NaN
    },
    {
      "Order": 2,
      "Dataset": "EC",
      "Variable": "DOMAIN",
      "Label": "域名缩写",
      "Data Type": "text",
      "Length": 2.0,
      "Significant Digits": NaN,
      "Format": NaN,
      "Mandatory": "Yes",
      "Assigned Value": NaN,
      "Codelist": NaN,
      "Common": NaN,
      "Origin": NaN,
      "Source": NaN,
      "Pages": NaN,
      "Method": NaN,
      "Predecessor": NaN,
      "Role": "Identifier",
      "Has No Data": "No",
      "Comment": NaN,
      "Developer Notes": NaN
    },
    {
      "Order": 3,
      "Dataset": "EC",
      "Variable": "USUBJID",
      "Label": "受试者唯一标识符",
      "Data Type": "text",
      "Length": 12.0,
      "Significant Digits": NaN,
      "Format": NaN,
      "Mandatory": "No",
      "Assigned Value": NaN,
      "Codelist": NaN,
      "Common": NaN,
      "Origin": NaN,
      "Source": NaN,
      "Pages": NaN,
      "Method": NaN,
      "Predecessor": NaN,
      "Role": "Identifier",
      "Has No Data": "No",
      "Comment": NaN,
      "Developer Notes": NaN
    },
    {
      "Order": 4,
      "Dataset": "EC",
      "Variable": "ECSEQ",
      "Label": "序号",
      "Data Type": "integer",
      "Length": 8.0,
      "Significant Digits": NaN,
      "Format": NaN,
      "Mandatory": "Yes",
      "Assigned Value": NaN,
      "Codelist": NaN,
      "Common": NaN,
      "Origin": NaN,
      "Source": NaN,
      "Pages": NaN,
      "Method": NaN,
      "Predecessor": NaN,
      "Role": "Identifier",
      "Has No Data": "No",
      "Comment": NaN,
      "Developer Notes": NaN
    },
    {
      "Order": 5,
      "Dataset": "EC",
      "Variable": "ECTRT",
      "Label": "治疗名称",
      "Data Type": "text",
      "Length": 15.0,
      "Significant Digits": NaN,
      "Format": NaN,
      "Mandatory": "Yes",
      "Assigned Value": NaN,
      "Codelist": NaN,
      "Common": NaN,
      "Origin": NaN,
      "Source": NaN,
      "Pages": NaN,
      "Method": NaN,
      "Predecessor": NaN,
      "Role": "Topic",
      "Has No Data": "No",
      "Comment": NaN,
      "Developer Notes": NaN
    },
    {
      "Order": 6,
      "Dataset": "EC",
      "Variable": "ECDOSE",
      "Label": "单次剂量",
      "Data Type": "float",
      "Length": 5.0,
      "Significant Digits": 2.0,
      "Format": NaN,
      "Mandatory": "No",
      "Assigned Value": NaN,
      "Codelist": NaN,
      "Common": NaN,
      "Origin": NaN,
      "Source": NaN,
      "Pages": NaN,
      "Method": NaN,
      "Predecessor": NaN,
      "Role": "Record Qualifier",
      "Has No Data": "No",
      "Comment": NaN,
      "Developer Notes": NaN
    },
    {
      "Order": 7,
      "Dataset": "EC",
      "Variable": "ECDOSU",
      "Label": "剂量单位",
      "Data Type": "text",
      "Length": 2.0,
      "Significant Digits": NaN,
      "Format": "$40",
      "Mandatory": "No",
      "Assigned Value": NaN,
      "Codelist": NaN,
      "Common": NaN,
      "Origin": NaN,
      "Source": NaN,
      "Pages": NaN,
      "Method": NaN,
      "Predecessor": NaN,
      "Role": "Variable Qualifier",
      "Has No Data": "No",
      "Comment": NaN,
      "Developer Notes": NaN
    },
    {
      "Order": 8,
      "Dataset": "EC",
      "Variable": "ECDOSFRM",
      "Label": "剂型",
      "Data Type": "text",
      "Length": 44.0,
      "Significant Digits": NaN,
      "Format": NaN,
      "Mandatory": "No",
      "Assigned Value": NaN,
      "Codelist": NaN,
      "Common": NaN,
      "Origin": NaN,
      "Source": NaN,
      "Pages": NaN,
      "Method": NaN,
      "Predecessor": NaN,
      "Role": "Variable Qualifier",
      "Has No Data": "No",
      "Comment": NaN,
      "Developer Notes": NaN
    },
    {
      "Order": 9,
      "Dataset": "EC",
      "Variable": "ECROUTE",
      "Label": "给药途径",
      "Data Type": "text",
      "Length": 16.0,
      "Significant Digits": NaN,
      "Format": NaN,
      "Mandatory": "No",
      "Assigned Value": NaN,
      "Codelist": NaN,
      "Common": NaN,
      "Origin": NaN,
      "Source": NaN,
      "Pages": NaN,
      "Method": NaN,
      "Predecessor": NaN,
      "Role": "Variable Qualifier",
      "Has No Data": "No",
      "Comment": NaN,
      "Developer Notes": NaN
    },
    {
      "Order": 10,
      "Dataset": "EC",
      "Variable": "EPOCH",
      "Label": "时期",
      "Data Type": "text",
      "Length": 9.0,
      "Significant Digits": NaN,
      "Format": NaN,
      "Mandatory": "No",
      "Assigned Value": NaN,
      "Codelist": NaN,
      "Common": NaN,
      "Origin": NaN,
      "Source": NaN,
      "Pages": NaN,
      "Method": NaN,
      "Predecessor": NaN,
      "Role": "Timing",
      "Has No Data": "No",
      "Comment": NaN,
      "Developer Notes": NaN
    },
    {
      "Order": 11,
      "Dataset": "EC",
      "Variable": "ECSTDTC",
      "Label": "开始日期/时间",
      "Data Type": "datetime",
      "Length": NaN,
      "Significant Digits": NaN,
      "Format": NaN,
      "Mandatory": "No",
      "Assigned Value": NaN,
      "Codelist": NaN,
      "Common": NaN,
      "Origin": NaN,
      "Source": NaN,
      "Pages": NaN,
      "Method": NaN,
      "Predecessor": NaN,
      "Role": "Timing",
      "Has No Data": "No",
      "Comment": NaN,
      "Developer Notes": NaN
    },
    {
      "Order": 12,
      "Dataset": "EC",
      "Variable": "ECENDTC",
      "Label": "结束日期/时间",
      "Data Type": "datetime",
      "Length": NaN,
      "Significant Digits": NaN,
      "Format": NaN,
      "Mandatory": "No",
      "Assigned Value": NaN,
      "Codelist": NaN,
      "Common": NaN,
      "Origin": NaN,
      "Source": NaN,
      "Pages": NaN,
      "Method": NaN,
      "Predecessor": NaN,
      "Role": "Timing",
      "Has No Data": "No",
      "Comment": NaN,
      "Developer Notes": NaN
    },
    {
      "Order": 13,
      "Dataset": "EC",
      "Variable": "ECSTDY",
      "Label": "开始日",
      "Data Type": "integer",
      "Length": 8.0,
      "Significant Digits": NaN,
      "Format": NaN,
      "Mandatory": "No",
      "Assigned Value": NaN,
      "Codelist": NaN,
      "Common": NaN,
      "Origin": NaN,
      "Source": NaN,
      "Pages": NaN,
      "Method": NaN,
      "Predecessor": NaN,
      "Role": "Timing",
      "Has No Data": "No",
      "Comment": NaN,
      "Developer Notes": NaN
    },
    {
      "Order": 14,
      "Dataset": "EC",
      "Variable": "ECENDY",
      "Label": "结束日",
      "Data Type": "integer",
      "Length": 8.0,
      "Significant Digits": NaN,
      "Format": NaN,
      "Mandatory": "No",
      "Assigned Value": NaN,
      "Codelist": NaN,
      "Common": NaN,
      "Origin": NaN,
      "Source": NaN,
      "Pages": NaN,
      "Method": NaN,
      "Predecessor": NaN,
      "Role": "Timing",
      "Has No Data": "No",
      "Comment": NaN,
      "Developer Notes": NaN
    },
    {
      "Order": 1,
      "Dataset": "EG",
      "Variable": "STUDYID",
      "Label": "研究标识符",
      "Data Type": "text",
      "Length": 12.0,
      "Significant Digits": NaN,
      "Format": NaN,
      "Mandatory": "Yes",
      "Assigned Value": NaN,
      "Codelist": NaN,
      "Common": NaN,
      "Origin": NaN,
      "Source": NaN,
      "Pages": NaN,
      "Method": NaN,
      "Predecessor": NaN,
      "Role": "Identifier",
      "Has No Data": "No",
      "Comment": NaN,
      "Developer Notes": NaN
    },
    {
      "Order": 2,
      "Dataset": "EG",
      "Variable": "DOMAIN",
      "Label": "域名缩写",
      "Data Type": "text",
      "Length": 2.0,
      "Significant Digits": NaN,
      "Format": NaN,
      "Mandatory": "Yes",
      "Assigned Value": NaN,
      "Codelist": NaN,
      "Common": NaN,
      "Origin": NaN,
      "Source": NaN,
      "Pages": NaN,
      "Method": NaN,
      "Predecessor": NaN,
      "Role": "Identifier",
      "Has No Data": "No",
      "Comment": NaN,
      "Developer Notes": NaN
    },
    {
      "Order": 3,
      "Dataset": "EG",
      "Variable": "USUBJID",
      "Label": "受试者唯一标识符",
      "Data Type": "text",
      "Length": 12.0,
      "Significant Digits": NaN,
      "Format": NaN,
      "Mandatory": "No",
      "Assigned Value": NaN,
      "Codelist": NaN,
      "Common": NaN,
      "Origin": NaN,
      "Source": NaN,
      "Pages": NaN,
      "Method": NaN,
      "Predecessor": NaN,
      "Role": "Identifier",
      "Has No Data": "No",
      "Comment": NaN,
      "Developer Notes": NaN
    },
    {
      "Order": 4,
      "Dataset": "EG",
      "Variable": "EGSEQ",
      "Label": "序号",
      "Data Type": "integer",
      "Length": 8.0,
      "Significant Digits": NaN,
      "Format": NaN,
      "Mandatory": "Yes",
      "Assigned Value": NaN,
      "Codelist": NaN,
      "Common": NaN,
      "Origin": NaN,
      "Source": NaN,
      "Pages": NaN,
      "Method": NaN,
      "Predecessor": NaN,
      "Role": "Identifier",
      "Has No Data": "No",
      "Comment": NaN,
      "Developer Notes": NaN
    },
    {
      "Order": 5,
      "Dataset": "EG",
      "Variable": "EGTESTCD",
      "Label": "检查项简称",
      "Data Type": "text",
      "Length": 6.0,
      "Significant Digits": NaN,
      "Format": NaN,
      "Mandatory": "Yes",
      "Assigned Value": NaN,
      "Codelist": NaN,
      "Common": NaN,
      "Origin": NaN,
      "Source": NaN,
      "Pages": NaN,
      "Method": NaN,
      "Predecessor": NaN,
      "Role": "Topic",
      "Has No Data": "No",
      "Comment": NaN,
      "Developer Notes": NaN
    },
    {
      "Order": 6,
      "Dataset": "EG",
      "Variable": "EGTEST",
      "Label": "检查项名称",
      "Data Type": "text",
      "Length": 20.0,
      "Significant Digits": NaN,
      "Format": NaN,
      "Mandatory": "Yes",
      "Assigned Value": NaN,
      "Codelist": NaN,
      "Common": NaN,
      "Origin": NaN,
      "Source": NaN,
      "Pages": NaN,
      "Method": NaN,
      "Predecessor": NaN,
      "Role": "Synonym Qualifier",
      "Has No Data": "No",
      "Comment": NaN,
      "Developer Notes": NaN
    },
    {
      "Order": 7,
      "Dataset": "EG",
      "Variable": "EGCAT",
      "Label": "类别",
      "Data Type": "text",
      "Length": 17.0,
      "Significant Digits": NaN,
      "Format": NaN,
      "Mandatory": "No",
      "Assigned Value": NaN,
      "Codelist": NaN,
      "Common": NaN,
      "Origin": NaN,
      "Source": NaN,
      "Pages": NaN,
      "Method": NaN,
      "Predecessor": NaN,
      "Role": "Grouping Qualifier",
      "Has No Data": "No",
      "Comment": NaN,
      "Developer Notes": NaN
    },
    {
      "Order": 8,
      "Dataset": "EG",
      "Variable": "EGORRES",
      "Label": "原始结果",
      "Data Type": "text",
      "Length": 21.0,
      "Significant Digits": NaN,
      "Format": NaN,
      "Mandatory": "No",
      "Assigned Value": NaN,
      "Codelist": NaN,
      "Common": NaN,
      "Origin": NaN,
      "Source": NaN,
      "Pages": NaN,
      "Method": NaN,
      "Predecessor": NaN,
      "Role": "Result Qualifier",
      "Has No Data": "No",
      "Comment": NaN,
      "Developer Notes": NaN
    },
    {
      "Order": 9,
      "Dataset": "EG",
      "Variable": "EGORRESU",
      "Label": "原始单位",
      "Data Type": "text",
      "Length": 7.0,
      "Significant Digits": NaN,
      "Format": NaN,
      "Mandatory": "No",
      "Assigned Value": NaN,
      "Codelist": NaN,
      "Common": NaN,
      "Origin": NaN,
      "Source": NaN,
      "Pages": NaN,
      "Method": NaN,
      "Predecessor": NaN,
      "Role": "Variable Qualifier",
      "Has No Data": "No",
      "Comment": NaN,
      "Developer Notes": NaN
    },
    {
      "Order": 10,
      "Dataset": "EG",
      "Variable": "EGSTRESC",
      "Label": "标准化结果",
      "Data Type": "text",
      "Length": 21.0,
      "Significant Digits": NaN,
      "Format": NaN,
      "Mandatory": "No",
      "Assigned Value": NaN,
      "Codelist": NaN,
      "Common": NaN,
      "Origin": NaN,
      "Source": NaN,
      "Pages": NaN,
      "Method": NaN,
      "Predecessor": NaN,
      "Role": "Result Qualifier",
      "Has No Data": "No",
      "Comment": NaN,
      "Developer Notes": NaN
    },
    {
      "Order": 11,
      "Dataset": "EG",
      "Variable": "EGSTRESN",
      "Label": "标准化结果(N)",
      "Data Type": "integer",
      "Length": 8.0,
      "Significant Digits": NaN,
      "Format": NaN,
      "Mandatory": "No",
      "Assigned Value": NaN,
      "Codelist": NaN,
      "Common": NaN,
      "Origin": NaN,
      "Source": NaN,
      "Pages": NaN,
      "Method": NaN,
      "Predecessor": NaN,
      "Role": "Result Qualifier",
      "Has No Data": "No",
      "Comment": NaN,
      "Developer Notes": NaN
    },
    {
      "Order": 12,
      "Dataset": "EG",
      "Variable": "EGSTRESU",
      "Label": "标准化单位",
      "Data Type": "text",
      "Length": 7.0,
      "Significant Digits": NaN,
      "Format": NaN,
      "Mandatory": "No",
      "Assigned Value": NaN,
      "Codelist": NaN,
      "Common": NaN,
      "Origin": NaN,
      "Source": NaN,
      "Pages": NaN,
      "Method": NaN,
      "Predecessor": NaN,
      "Role": "Variable Qualifier",
      "Has No Data": "No",
      "Comment": NaN,
      "Developer Notes": NaN
    },
    {
      "Order": 13,
      "Dataset": "EG",
      "Variable": "EGSTAT",
      "Label": "未做状态",
      "Data Type": "text",
      "Length": 8.0,
      "Significant Digits": NaN,
      "Format": NaN,
      "Mandatory": "No",
      "Assigned Value": NaN,
      "Codelist": NaN,
      "Common": NaN,
      "Origin": NaN,
      "Source": NaN,
      "Pages": NaN,
      "Method": NaN,
      "Predecessor": NaN,
      "Role": "Record Qualifier",
      "Has No Data": "No",
      "Comment": NaN,
      "Developer Notes": NaN
    },
    {
      "Order": 14,
      "Dataset": "EG",
      "Variable": "EGREASND",
      "Label": "未做原因",
      "Data Type": "text",
      "Length": 6.0,
      "Significant Digits": NaN,
      "Format": NaN,
      "Mandatory": "No",
      "Assigned Value": NaN,
      "Codelist": NaN,
      "Common": NaN,
      "Origin": NaN,
      "Source": NaN,
      "Pages": NaN,
      "Method": NaN,
      "Predecessor": NaN,
      "Role": "Record Qualifier",
      "Has No Data": "No",
      "Comment": NaN,
      "Developer Notes": NaN
    },
    {
      "Order": 15,
      "Dataset": "EG",
      "Variable": "EGBLFL",
      "Label": "基线标帜",
      "Data Type": "text",
      "Length": 1.0,
      "Significant Digits": NaN,
      "Format": NaN,
      "Mandatory": "No",
      "Assigned Value": NaN,
      "Codelist": NaN,
      "Common": NaN,
      "Origin": NaN,
      "Source": NaN,
      "Pages": NaN,
      "Method": NaN,
      "Predecessor": NaN,
      "Role": "Record Qualifier",
      "Has No Data": "No",
      "Comment": NaN,
      "Developer Notes": NaN
    },
    {
      "Order": 16,
      "Dataset": "EG",
      "Variable": "VISITNUM",
      "Label": "访视编号",
      "Data Type": "integer",
      "Length": 8.0,
      "Significant Digits": NaN,
      "Format": NaN,
      "Mandatory": "No",
      "Assigned Value": NaN,
      "Codelist": NaN,
      "Common": NaN,
      "Origin": NaN,
      "Source": NaN,
      "Pages": NaN,
      "Method": NaN,
      "Predecessor": NaN,
      "Role": "Timing",
      "Has No Data": "No",
      "Comment": NaN,
      "Developer Notes": NaN
    },
    {
      "Order": 17,
      "Dataset": "EG",
      "Variable": "VISIT",
      "Label": "访视名称",
      "Data Type": "text",
      "Length": 28.0,
      "Significant Digits": NaN,
      "Format": NaN,
      "Mandatory": "No",
      "Assigned Value": NaN,
      "Codelist": NaN,
      "Common": NaN,
      "Origin": NaN,
      "Source": NaN,
      "Pages": NaN,
      "Method": NaN,
      "Predecessor": NaN,
      "Role": "Timing",
      "Has No Data": "No",
      "Comment": NaN,
      "Developer Notes": NaN
    },
    {
      "Order": 18,
      "Dataset": "EG",
      "Variable": "EPOCH",
      "Label": "时期",
      "Data Type": "text",
      "Length": 9.0,
      "Significant Digits": NaN,
      "Format": NaN,
      "Mandatory": "No",
      "Assigned Value": NaN,
      "Codelist": NaN,
      "Common": NaN,
      "Origin": NaN,
      "Source": NaN,
      "Pages": NaN,
      "Method": NaN,
      "Predecessor": NaN,
      "Role": "Timing",
      "Has No Data": "No",
      "Comment": NaN,
      "Developer Notes": NaN
    },
    {
      "Order": 19,
      "Dataset": "EG",
      "Variable": "EGDTC",
      "Label": "检查日期/时间",
      "Data Type": "datetime",
      "Length": NaN,
      "Significant Digits": NaN,
      "Format": NaN,
      "Mandatory": "No",
      "Assigned Value": NaN,
      "Codelist": NaN,
      "Common": NaN,
      "Origin": NaN,
      "Source": NaN,
      "Pages": NaN,
      "Method": NaN,
      "Predecessor": NaN,
      "Role": "Timing",
      "Has No Data": "No",
      "Comment": NaN,
      "Developer Notes": NaN
    },
    {
      "Order": 20,
      "Dataset": "EG",
      "Variable": "EGDY",
      "Label": "检查日",
      "Data Type": "integer",
      "Length": 8.0,
      "Significant Digits": NaN,
      "Format": NaN,
      "Mandatory": "No",
      "Assigned Value": NaN,
      "Codelist": NaN,
      "Common": NaN,
      "Origin": NaN,
      "Source": NaN,
      "Pages": NaN,
      "Method": NaN,
      "Predecessor": NaN,
      "Role": "Timing",
      "Has No Data": "No",
      "Comment": NaN,
      "Developer Notes": NaN
    },
    {
      "Order": 21,
      "Dataset": "EG",
      "Variable": "EGTPT",
      "Label": "计划时点名称",
      "Data Type": "text",
      "Length": 32.0,
      "Significant Digits": NaN,
      "Format": NaN,
      "Mandatory": "No",
      "Assigned Value": NaN,
      "Codelist": NaN,
      "Common": NaN,
      "Origin": NaN,
      "Source": NaN,
      "Pages": NaN,
      "Method": NaN,
      "Predecessor": NaN,
      "Role": "Timing",
      "Has No Data": "No",
      "Comment": NaN,
      "Developer Notes": NaN
    },
    {
      "Order": 22,
      "Dataset": "EG",
      "Variable": "EGTPTNUM",
      "Label": "计划时点编号",
      "Data Type": "float",
      "Length": 3.0,
      "Significant Digits": 1.0,
      "Format": NaN,
      "Mandatory": "No",
      "Assigned Value": NaN,
      "Codelist": NaN,
      "Common": NaN,
      "Origin": NaN,
      "Source": NaN,
      "Pages": NaN,
      "Method": NaN,
      "Predecessor": NaN,
      "Role": "Timing",
      "Has No Data": "No",
      "Comment": NaN,
      "Developer Notes": NaN
    },
    {
      "Order": 1,
      "Dataset": "EX",
      "Variable": "STUDYID",
      "Label": "研究标识符",
      "Data Type": "text",
      "Length": 12.0,
      "Significant Digits": NaN,
      "Format": NaN,
      "Mandatory": "Yes",
      "Assigned Value": NaN,
      "Codelist": NaN,
      "Common": NaN,
      "Origin": NaN,
      "Source": NaN,
      "Pages": NaN,
      "Method": NaN,
      "Predecessor": NaN,
      "Role": "Identifier",
      "Has No Data": "No",
      "Comment": NaN,
      "Developer Notes": NaN
    },
    {
      "Order": 2,
      "Dataset": "EX",
      "Variable": "DOMAIN",
      "Label": "域名缩写",
      "Data Type": "text",
      "Length": 2.0,
      "Significant Digits": NaN,
      "Format": NaN,
      "Mandatory": "Yes",
      "Assigned Value": NaN,
      "Codelist": NaN,
      "Common": NaN,
      "Origin": NaN,
      "Source": NaN,
      "Pages": NaN,
      "Method": NaN,
      "Predecessor": NaN,
      "Role": "Identifier",
      "Has No Data": "No",
      "Comment": NaN,
      "Developer Notes": NaN
    },
    {
      "Order": 3,
      "Dataset": "EX",
      "Variable": "USUBJID",
      "Label": "受试者唯一标识符",
      "Data Type": "text",
      "Length": 12.0,
      "Significant Digits": NaN,
      "Format": NaN,
      "Mandatory": "No",
      "Assigned Value": NaN,
      "Codelist": NaN,
      "Common": NaN,
      "Origin": NaN,
      "Source": NaN,
      "Pages": NaN,
      "Method": NaN,
      "Predecessor": NaN,
      "Role": "Identifier",
      "Has No Data": "No",
      "Comment": NaN,
      "Developer Notes": NaN
    },
    {
      "Order": 4,
      "Dataset": "EX",
      "Variable": "EXSEQ",
      "Label": "序号",
      "Data Type": "integer",
      "Length": 8.0,
      "Significant Digits": NaN,
      "Format": NaN,
      "Mandatory": "Yes",
      "Assigned Value": NaN,
      "Codelist": NaN,
      "Common": NaN,
      "Origin": NaN,
      "Source": NaN,
      "Pages": NaN,
      "Method": NaN,
      "Predecessor": NaN,
      "Role": "Identifier",
      "Has No Data": "No",
      "Comment": NaN,
      "Developer Notes": NaN
    },
    {
      "Order": 5,
      "Dataset": "EX",
      "Variable": "EXTRT",
      "Label": "治疗名称",
      "Data Type": "text",
      "Length": 15.0,
      "Significant Digits": NaN,
      "Format": NaN,
      "Mandatory": "Yes",
      "Assigned Value": NaN,
      "Codelist": NaN,
      "Common": NaN,
      "Origin": NaN,
      "Source": NaN,
      "Pages": NaN,
      "Method": NaN,
      "Predecessor": NaN,
      "Role": "Topic",
      "Has No Data": "No",
      "Comment": NaN,
      "Developer Notes": NaN
    },
    {
      "Order": 6,
      "Dataset": "EX",
      "Variable": "EXDOSE",
      "Label": "单次剂量",
      "Data Type": "float",
      "Length": 5.0,
      "Significant Digits": 2.0,
      "Format": NaN,
      "Mandatory": "No",
      "Assigned Value": NaN,
      "Codelist": NaN,
      "Common": NaN,
      "Origin": NaN,
      "Source": NaN,
      "Pages": NaN,
      "Method": NaN,
      "Predecessor": NaN,
      "Role": "Record Qualifier",
      "Has No Data": "No",
      "Comment": NaN,
      "Developer Notes": NaN
    },
    {
      "Order": 7,
      "Dataset": "EX",
      "Variable": "EXDOSU",
      "Label": "剂量单位",
      "Data Type": "text",
      "Length": 2.0,
      "Significant Digits": NaN,
      "Format": "$40",
      "Mandatory": "No",
      "Assigned Value": NaN,
      "Codelist": NaN,
      "Common": NaN,
      "Origin": NaN,
      "Source": NaN,
      "Pages": NaN,
      "Method": NaN,
      "Predecessor": NaN,
      "Role": "Variable Qualifier",
      "Has No Data": "No",
      "Comment": NaN,
      "Developer Notes": NaN
    },
    {
      "Order": 8,
      "Dataset": "EX",
      "Variable": "EXDOSFRM",
      "Label": "剂型",
      "Data Type": "text",
      "Length": 44.0,
      "Significant Digits": NaN,
      "Format": NaN,
      "Mandatory": "No",
      "Assigned Value": NaN,
      "Codelist": NaN,
      "Common": NaN,
      "Origin": NaN,
      "Source": NaN,
      "Pages": NaN,
      "Method": NaN,
      "Predecessor": NaN,
      "Role": "Variable Qualifier",
      "Has No Data": "No",
      "Comment": NaN,
      "Developer Notes": NaN
    },
    {
      "Order": 9,
      "Dataset": "EX",
      "Variable": "EXROUTE",
      "Label": "给药途径",
      "Data Type": "text",
      "Length": 16.0,
      "Significant Digits": NaN,
      "Format": NaN,
      "Mandatory": "No",
      "Assigned Value": NaN,
      "Codelist": NaN,
      "Common": NaN,
      "Origin": NaN,
      "Source": NaN,
      "Pages": NaN,
      "Method": NaN,
      "Predecessor": NaN,
      "Role": "Variable Qualifier",
      "Has No Data": "No",
      "Comment": NaN,
      "Developer Notes": NaN
    },
    {
      "Order": 10,
      "Dataset": "EX",
      "Variable": "EPOCH",
      "Label": "时期",
      "Data Type": "text",
      "Length": 9.0,
      "Significant Digits": NaN,
      "Format": NaN,
      "Mandatory": "No",
      "Assigned Value": NaN,
      "Codelist": NaN,
      "Common": NaN,
      "Origin": NaN,
      "Source": NaN,
      "Pages": NaN,
      "Method": NaN,
      "Predecessor": NaN,
      "Role": "Timing",
      "Has No Data": "No",
      "Comment": NaN,
      "Developer Notes": NaN
    },
    {
      "Order": 11,
      "Dataset": "EX",
      "Variable": "EXSTDTC",
      "Label": "开始日期/时间",
      "Data Type": "datetime",
      "Length": NaN,
      "Significant Digits": NaN,
      "Format": NaN,
      "Mandatory": "No",
      "Assigned Value": NaN,
      "Codelist": NaN,
      "Common": NaN,
      "Origin": NaN,
      "Source": NaN,
      "Pages": NaN,
      "Method": NaN,
      "Predecessor": NaN,
      "Role": "Timing",
      "Has No Data": "No",
      "Comment": NaN,
      "Developer Notes": NaN
    },
    {
      "Order": 12,
      "Dataset": "EX",
      "Variable": "EXENDTC",
      "Label": "结束日期/时间",
      "Data Type": "datetime",
      "Length": NaN,
      "Significant Digits": NaN,
      "Format": NaN,
      "Mandatory": "No",
      "Assigned Value": NaN,
      "Codelist": NaN,
      "Common": NaN,
      "Origin": NaN,
      "Source": NaN,
      "Pages": NaN,
      "Method": NaN,
      "Predecessor": NaN,
      "Role": "Timing",
      "Has No Data": "No",
      "Comment": NaN,
      "Developer Notes": NaN
    },
    {
      "Order": 13,
      "Dataset": "EX",
      "Variable": "EXSTDY",
      "Label": "开始日",
      "Data Type": "integer",
      "Length": 8.0,
      "Significant Digits": NaN,
      "Format": NaN,
      "Mandatory": "No",
      "Assigned Value": NaN,
      "Codelist": NaN,
      "Common": NaN,
      "Origin": NaN,
      "Source": NaN,
      "Pages": NaN,
      "Method": NaN,
      "Predecessor": NaN,
      "Role": "Timing",
      "Has No Data": "No",
      "Comment": NaN,
      "Developer Notes": NaN
    },
    {
      "Order": 14,
      "Dataset": "EX",
      "Variable": "EXENDY",
      "Label": "结束日",
      "Data Type": "integer",
      "Length": 8.0,
      "Significant Digits": NaN,
      "Format": NaN,
      "Mandatory": "No",
      "Assigned Value": NaN,
      "Codelist": NaN,
      "Common": NaN,
      "Origin": NaN,
      "Source": NaN,
      "Pages": NaN,
      "Method": NaN,
      "Predecessor": NaN,
      "Role": "Timing",
      "Has No Data": "No",
      "Comment": NaN,
      "Developer Notes": NaN
    },
    {
      "Order": 1,
      "Dataset": "IE",
      "Variable": "STUDYID",
      "Label": "研究标识符",
      "Data Type": "text",
      "Length": 12.0,
      "Significant Digits": NaN,
      "Format": NaN,
      "Mandatory": "Yes",
      "Assigned Value": NaN,
      "Codelist": NaN,
      "Common": NaN,
      "Origin": NaN,
      "Source": NaN,
      "Pages": NaN,
      "Method": NaN,
      "Predecessor": NaN,
      "Role": "Identifier",
      "Has No Data": "No",
      "Comment": NaN,
      "Developer Notes": NaN
    },
    {
      "Order": 2,
      "Dataset": "IE",
      "Variable": "DOMAIN",
      "Label": "域名缩写",
      "Data Type": "text",
      "Length": 2.0,
      "Significant Digits": NaN,
      "Format": NaN,
      "Mandatory": "Yes",
      "Assigned Value": NaN,
      "Codelist": NaN,
      "Common": NaN,
      "Origin": NaN,
      "Source": NaN,
      "Pages": NaN,
      "Method": NaN,
      "Predecessor": NaN,
      "Role": "Identifier",
      "Has No Data": "No",
      "Comment": NaN,
      "Developer Notes": NaN
    },
    {
      "Order": 3,
      "Dataset": "IE",
      "Variable": "USUBJID",
      "Label": "受试者唯一标识符",
      "Data Type": "text",
      "Length": 7.0,
      "Significant Digits": NaN,
      "Format": NaN,
      "Mandatory": "No",
      "Assigned Value": NaN,
      "Codelist": NaN,
      "Common": NaN,
      "Origin": NaN,
      "Source": NaN,
      "Pages": NaN,
      "Method": NaN,
      "Predecessor": NaN,
      "Role": "Identifier",
      "Has No Data": "No",
      "Comment": NaN,
      "Developer Notes": NaN
    },
    {
      "Order": 4,
      "Dataset": "IE",
      "Variable": "IESEQ",
      "Label": "序号",
      "Data Type": "integer",
      "Length": 8.0,
      "Significant Digits": NaN,
      "Format": NaN,
      "Mandatory": "Yes",
      "Assigned Value": NaN,
      "Codelist": NaN,
      "Common": NaN,
      "Origin": NaN,
      "Source": NaN,
      "Pages": NaN,
      "Method": NaN,
      "Predecessor": NaN,
      "Role": "Identifier",
      "Has No Data": "No",
      "Comment": NaN,
      "Developer Notes": NaN
    },
    {
      "Order": 5,
      "Dataset": "IE",
      "Variable": "IETESTCD",
      "Label": "入选/排除标准简称",
      "Data Type": "text",
      "Length": 6.0,
      "Significant Digits": NaN,
      "Format": "$18",
      "Mandatory": "Yes",
      "Assigned Value": NaN,
      "Codelist": NaN,
      "Common": NaN,
      "Origin": NaN,
      "Source": NaN,
      "Pages": NaN,
      "Method": NaN,
      "Predecessor": NaN,
      "Role": "Topic",
      "Has No Data": "No",
      "Comment": NaN,
      "Developer Notes": NaN
    },
    {
      "Order": 6,
      "Dataset": "IE",
      "Variable": "IETEST",
      "Label": "入选/排除标准",
      "Data Type": "text",
      "Length": 144.0,
      "Significant Digits": NaN,
      "Format": "$156",
      "Mandatory": "Yes",
      "Assigned Value": NaN,
      "Codelist": NaN,
      "Common": NaN,
      "Origin": NaN,
      "Source": NaN,
      "Pages": NaN,
      "Method": NaN,
      "Predecessor": NaN,
      "Role": "Synonym Qualifier",
      "Has No Data": "No",
      "Comment": NaN,
      "Developer Notes": NaN
    },
    {
      "Order": 7,
      "Dataset": "IE",
      "Variable": "IECAT",
      "Label": "类别",
      "Data Type": "text",
      "Length": 9.0,
      "Significant Digits": NaN,
      "Format": "$27",
      "Mandatory": "Yes",
      "Assigned Value": NaN,
      "Codelist": NaN,
      "Common": NaN,
      "Origin": NaN,
      "Source": NaN,
      "Pages": NaN,
      "Method": NaN,
      "Predecessor": NaN,
      "Role": "Grouping Qualifier",
      "Has No Data": "No",
      "Comment": NaN,
      "Developer Notes": NaN
    },
    {
      "Order": 8,
      "Dataset": "IE",
      "Variable": "IEORRES",
      "Label": "原始结果",
      "Data Type": "text",
      "Length": 1.0,
      "Significant Digits": NaN,
      "Format": NaN,
      "Mandatory": "Yes",
      "Assigned Value": NaN,
      "Codelist": NaN,
      "Common": NaN,
      "Origin": NaN,
      "Source": NaN,
      "Pages": NaN,
      "Method": NaN,
      "Predecessor": NaN,
      "Role": "Result Qualifier",
      "Has No Data": "No",
      "Comment": NaN,
      "Developer Notes": NaN
    },
    {
      "Order": 9,
      "Dataset": "IE",
      "Variable": "IESTRESC",
      "Label": "标准化结果",
      "Data Type": "text",
      "Length": 1.0,
      "Significant Digits": NaN,
      "Format": NaN,
      "Mandatory": "Yes",
      "Assigned Value": NaN,
      "Codelist": NaN,
      "Common": NaN,
      "Origin": NaN,
      "Source": NaN,
      "Pages": NaN,
      "Method": NaN,
      "Predecessor": NaN,
      "Role": "Result Qualifier",
      "Has No Data": "No",
      "Comment": NaN,
      "Developer Notes": NaN
    },
    {
      "Order": 10,
      "Dataset": "IE",
      "Variable": "VISITNUM",
      "Label": "访视编号",
      "Data Type": "integer",
      "Length": 8.0,
      "Significant Digits": NaN,
      "Format": NaN,
      "Mandatory": "No",
      "Assigned Value": NaN,
      "Codelist": NaN,
      "Common": NaN,
      "Origin": NaN,
      "Source": NaN,
      "Pages": NaN,
      "Method": NaN,
      "Predecessor": NaN,
      "Role": "Timing",
      "Has No Data": "No",
      "Comment": NaN,
      "Developer Notes": NaN
    },
    {
      "Order": 11,
      "Dataset": "IE",
      "Variable": "VISIT",
      "Label": "访视名称",
      "Data Type": "text",
      "Length": 28.0,
      "Significant Digits": NaN,
      "Format": NaN,
      "Mandatory": "No",
      "Assigned Value": NaN,
      "Codelist": NaN,
      "Common": NaN,
      "Origin": NaN,
      "Source": NaN,
      "Pages": NaN,
      "Method": NaN,
      "Predecessor": NaN,
      "Role": "Timing",
      "Has No Data": "No",
      "Comment": NaN,
      "Developer Notes": NaN
    },
    {
      "Order": 1,
      "Dataset": "IS",
      "Variable": "STUDYID",
      "Label": "研究标识符",
      "Data Type": "text",
      "Length": 12.0,
      "Significant Digits": NaN,
      "Format": NaN,
      "Mandatory": "Yes",
      "Assigned Value": NaN,
      "Codelist": NaN,
      "Common": NaN,
      "Origin": NaN,
      "Source": NaN,
      "Pages": NaN,
      "Method": NaN,
      "Predecessor": NaN,
      "Role": "Identifier",
      "Has No Data": "No",
      "Comment": NaN,
      "Developer Notes": NaN
    },
    {
      "Order": 2,
      "Dataset": "IS",
      "Variable": "DOMAIN",
      "Label": "域名缩写",
      "Data Type": "text",
      "Length": 2.0,
      "Significant Digits": NaN,
      "Format": NaN,
      "Mandatory": "Yes",
      "Assigned Value": NaN,
      "Codelist": NaN,
      "Common": NaN,
      "Origin": NaN,
      "Source": NaN,
      "Pages": NaN,
      "Method": NaN,
      "Predecessor": NaN,
      "Role": "Identifier",
      "Has No Data": "No",
      "Comment": NaN,
      "Developer Notes": NaN
    },
    {
      "Order": 3,
      "Dataset": "IS",
      "Variable": "USUBJID",
      "Label": "受试者唯一标识符",
      "Data Type": "text",
      "Length": 12.0,
      "Significant Digits": NaN,
      "Format": NaN,
      "Mandatory": "No",
      "Assigned Value": NaN,
      "Codelist": NaN,
      "Common": NaN,
      "Origin": NaN,
      "Source": NaN,
      "Pages": NaN,
      "Method": NaN,
      "Predecessor": NaN,
      "Role": "Identifier",
      "Has No Data": "No",
      "Comment": NaN,
      "Developer Notes": NaN
    },
    {
      "Order": 4,
      "Dataset": "IS",
      "Variable": "ISSEQ",
      "Label": "序号",
      "Data Type": "integer",
      "Length": 8.0,
      "Significant Digits": NaN,
      "Format": NaN,
      "Mandatory": "Yes",
      "Assigned Value": NaN,
      "Codelist": NaN,
      "Common": NaN,
      "Origin": NaN,
      "Source": NaN,
      "Pages": NaN,
      "Method": NaN,
      "Predecessor": NaN,
      "Role": "Identifier",
      "Has No Data": "No",
      "Comment": NaN,
      "Developer Notes": NaN
    },
    {
      "Order": 5,
      "Dataset": "IS",
      "Variable": "ISSPID",
      "Label": "自定义标识符",
      "Data Type": "text",
      "Length": 1.0,
      "Significant Digits": NaN,
      "Format": NaN,
      "Mandatory": "No",
      "Assigned Value": NaN,
      "Codelist": NaN,
      "Common": NaN,
      "Origin": NaN,
      "Source": NaN,
      "Pages": NaN,
      "Method": NaN,
      "Predecessor": NaN,
      "Role": "Identifier",
      "Has No Data": "No",
      "Comment": NaN,
      "Developer Notes": NaN
    },
    {
      "Order": 6,
      "Dataset": "IS",
      "Variable": "ISTESTCD",
      "Label": "检测项简称",
      "Data Type": "text",
      "Length": 5.0,
      "Significant Digits": NaN,
      "Format": NaN,
      "Mandatory": "Yes",
      "Assigned Value": NaN,
      "Codelist": NaN,
      "Common": NaN,
      "Origin": NaN,
      "Source": NaN,
      "Pages": NaN,
      "Method": NaN,
      "Predecessor": NaN,
      "Role": "Topic",
      "Has No Data": "No",
      "Comment": NaN,
      "Developer Notes": NaN
    },
    {
      "Order": 7,
      "Dataset": "IS",
      "Variable": "ISTEST",
      "Label": "检测项名称",
      "Data Type": "text",
      "Length": 14.0,
      "Significant Digits": NaN,
      "Format": NaN,
      "Mandatory": "Yes",
      "Assigned Value": NaN,
      "Codelist": NaN,
      "Common": NaN,
      "Origin": NaN,
      "Source": NaN,
      "Pages": NaN,
      "Method": NaN,
      "Predecessor": NaN,
      "Role": "Synonym Qualifier",
      "Has No Data": "No",
      "Comment": NaN,
      "Developer Notes": NaN
    },
    {
      "Order": 8,
      "Dataset": "IS",
      "Variable": "ISCAT",
      "Label": "类别",
      "Data Type": "text",
      "Length": 7.0,
      "Significant Digits": NaN,
      "Format": NaN,
      "Mandatory": "No",
      "Assigned Value": NaN,
      "Codelist": NaN,
      "Common": NaN,
      "Origin": NaN,
      "Source": NaN,
      "Pages": NaN,
      "Method": NaN,
      "Predecessor": NaN,
      "Role": "Grouping Qualifier",
      "Has No Data": "No",
      "Comment": NaN,
      "Developer Notes": NaN
    },
    {
      "Order": 9,
      "Dataset": "IS",
      "Variable": "ISORRES",
      "Label": "原始结果",
      "Data Type": "text",
      "Length": 6.0,
      "Significant Digits": NaN,
      "Format": NaN,
      "Mandatory": "No",
      "Assigned Value": NaN,
      "Codelist": NaN,
      "Common": NaN,
      "Origin": NaN,
      "Source": NaN,
      "Pages": NaN,
      "Method": NaN,
      "Predecessor": NaN,
      "Role": "Result Qualifier",
      "Has No Data": "No",
      "Comment": NaN,
      "Developer Notes": NaN
    },
    {
      "Order": 10,
      "Dataset": "IS",
      "Variable": "ISORRESU",
      "Label": "原始单位",
      "Data Type": "text",
      "Length": 1.0,
      "Significant Digits": NaN,
      "Format": NaN,
      "Mandatory": "No",
      "Assigned Value": NaN,
      "Codelist": NaN,
      "Common": NaN,
      "Origin": NaN,
      "Source": NaN,
      "Pages": NaN,
      "Method": NaN,
      "Predecessor": NaN,
      "Role": "Variable Qualifier",
      "Has No Data": "No",
      "Comment": NaN,
      "Developer Notes": NaN
    },
    {
      "Order": 11,
      "Dataset": "IS",
      "Variable": "ISSTRESC",
      "Label": "标准化结果",
      "Data Type": "text",
      "Length": 6.0,
      "Significant Digits": NaN,
      "Format": NaN,
      "Mandatory": "No",
      "Assigned Value": NaN,
      "Codelist": NaN,
      "Common": NaN,
      "Origin": NaN,
      "Source": NaN,
      "Pages": NaN,
      "Method": NaN,
      "Predecessor": NaN,
      "Role": "Result Qualifier",
      "Has No Data": "No",
      "Comment": NaN,
      "Developer Notes": NaN
    },
    {
      "Order": 12,
      "Dataset": "IS",
      "Variable": "ISSTRESN",
      "Label": "标准化结果(N)",
      "Data Type": "integer",
      "Length": 8.0,
      "Significant Digits": NaN,
      "Format": NaN,
      "Mandatory": "No",
      "Assigned Value": NaN,
      "Codelist": NaN,
      "Common": NaN,
      "Origin": NaN,
      "Source": NaN,
      "Pages": NaN,
      "Method": NaN,
      "Predecessor": NaN,
      "Role": "Result Qualifier",
      "Has No Data": "No",
      "Comment": NaN,
      "Developer Notes": NaN
    },
    {
      "Order": 13,
      "Dataset": "IS",
      "Variable": "ISSTRESU",
      "Label": "标准化单位",
      "Data Type": "text",
      "Length": 1.0,
      "Significant Digits": NaN,
      "Format": NaN,
      "Mandatory": "No",
      "Assigned Value": NaN,
      "Codelist": NaN,
      "Common": NaN,
      "Origin": NaN,
      "Source": NaN,
      "Pages": NaN,
      "Method": NaN,
      "Predecessor": NaN,
      "Role": "Variable Qualifier",
      "Has No Data": "No",
      "Comment": NaN,
      "Developer Notes": NaN
    },
    {
      "Order": 14,
      "Dataset": "IS",
      "Variable": "ISSTAT",
      "Label": "未做状态",
      "Data Type": "text",
      "Length": 8.0,
      "Significant Digits": NaN,
      "Format": NaN,
      "Mandatory": "No",
      "Assigned Value": NaN,
      "Codelist": NaN,
      "Common": NaN,
      "Origin": NaN,
      "Source": NaN,
      "Pages": NaN,
      "Method": NaN,
      "Predecessor": NaN,
      "Role": "Record Qualifier",
      "Has No Data": "No",
      "Comment": NaN,
      "Developer Notes": NaN
    },
    {
      "Order": 15,
      "Dataset": "IS",
      "Variable": "ISREASND",
      "Label": "未做原因",
      "Data Type": "text",
      "Length": 8.0,
      "Significant Digits": NaN,
      "Format": NaN,
      "Mandatory": "No",
      "Assigned Value": NaN,
      "Codelist": NaN,
      "Common": NaN,
      "Origin": NaN,
      "Source": NaN,
      "Pages": NaN,
      "Method": NaN,
      "Predecessor": NaN,
      "Role": "Record Qualifier",
      "Has No Data": "No",
      "Comment": NaN,
      "Developer Notes": NaN
    },
    {
      "Order": 16,
      "Dataset": "IS",
      "Variable": "ISNAM",
      "Label": "实验室/供应商名称",
      "Data Type": "text",
      "Length": 36.0,
      "Significant Digits": NaN,
      "Format": NaN,
      "Mandatory": "No",
      "Assigned Value": NaN,
      "Codelist": NaN,
      "Common": NaN,
      "Origin": NaN,
      "Source": NaN,
      "Pages": NaN,
      "Method": NaN,
      "Predecessor": NaN,
      "Role": "Record Qualifier",
      "Has No Data": "No",
      "Comment": NaN,
      "Developer Notes": NaN
    },
    {
      "Order": 17,
      "Dataset": "IS",
      "Variable": "ISSPEC",
      "Label": "样本类型",
      "Data Type": "text",
      "Length": 5.0,
      "Significant Digits": NaN,
      "Format": NaN,
      "Mandatory": "No",
      "Assigned Value": NaN,
      "Codelist": NaN,
      "Common": NaN,
      "Origin": NaN,
      "Source": NaN,
      "Pages": NaN,
      "Method": NaN,
      "Predecessor": NaN,
      "Role": "Record Qualifier",
      "Has No Data": "No",
      "Comment": NaN,
      "Developer Notes": NaN
    },
    {
      "Order": 18,
      "Dataset": "IS",
      "Variable": "ISMETHOD",
      "Label": "检测方法",
      "Data Type": "text",
      "Length": 24.0,
      "Significant Digits": NaN,
      "Format": NaN,
      "Mandatory": "No",
      "Assigned Value": NaN,
      "Codelist": NaN,
      "Common": NaN,
      "Origin": NaN,
      "Source": NaN,
      "Pages": NaN,
      "Method": NaN,
      "Predecessor": NaN,
      "Role": "Record Qualifier",
      "Has No Data": "No",
      "Comment": NaN,
      "Developer Notes": NaN
    },
    {
      "Order": 19,
      "Dataset": "IS",
      "Variable": "ISLLOQ",
      "Label": "定量下限",
      "Data Type": "integer",
      "Length": 8.0,
      "Significant Digits": NaN,
      "Format": NaN,
      "Mandatory": "No",
      "Assigned Value": NaN,
      "Codelist": NaN,
      "Common": NaN,
      "Origin": NaN,
      "Source": NaN,
      "Pages": NaN,
      "Method": NaN,
      "Predecessor": NaN,
      "Role": "Variable Qualifier",
      "Has No Data": "No",
      "Comment": NaN,
      "Developer Notes": NaN
    },
    {
      "Order": 20,
      "Dataset": "IS",
      "Variable": "VISITNUM",
      "Label": "访视编号",
      "Data Type": "integer",
      "Length": 8.0,
      "Significant Digits": NaN,
      "Format": NaN,
      "Mandatory": "No",
      "Assigned Value": NaN,
      "Codelist": NaN,
      "Common": NaN,
      "Origin": NaN,
      "Source": NaN,
      "Pages": NaN,
      "Method": NaN,
      "Predecessor": NaN,
      "Role": "Timing",
      "Has No Data": "No",
      "Comment": NaN,
      "Developer Notes": NaN
    },
    {
      "Order": 21,
      "Dataset": "IS",
      "Variable": "VISIT",
      "Label": "访视名称",
      "Data Type": "text",
      "Length": 4.0,
      "Significant Digits": NaN,
      "Format": NaN,
      "Mandatory": "No",
      "Assigned Value": NaN,
      "Codelist": NaN,
      "Common": NaN,
      "Origin": NaN,
      "Source": NaN,
      "Pages": NaN,
      "Method": NaN,
      "Predecessor": NaN,
      "Role": "Timing",
      "Has No Data": "No",
      "Comment": NaN,
      "Developer Notes": NaN
    },
    {
      "Order": 22,
      "Dataset": "IS",
      "Variable": "ISDTC",
      "Label": "采集日期/时间",
      "Data Type": "datetime",
      "Length": NaN,
      "Significant Digits": NaN,
      "Format": NaN,
      "Mandatory": "No",
      "Assigned Value": NaN,
      "Codelist": NaN,
      "Common": NaN,
      "Origin": NaN,
      "Source": NaN,
      "Pages": NaN,
      "Method": NaN,
      "Predecessor": NaN,
      "Role": "Timing",
      "Has No Data": "No",
      "Comment": NaN,
      "Developer Notes": NaN
    },
    {
      "Order": 23,
      "Dataset": "IS",
      "Variable": "ISDY",
      "Label": "采集日",
      "Data Type": "integer",
      "Length": 8.0,
      "Significant Digits": NaN,
      "Format": NaN,
      "Mandatory": "No",
      "Assigned Value": NaN,
      "Codelist": NaN,
      "Common": NaN,
      "Origin": NaN,
      "Source": NaN,
      "Pages": NaN,
      "Method": NaN,
      "Predecessor": NaN,
      "Role": "Timing",
      "Has No Data": "No",
      "Comment": NaN,
      "Developer Notes": NaN
    },
    {
      "Order": 1,
      "Dataset": "LB",
      "Variable": "STUDYID",
      "Label": "研究标识符",
      "Data Type": "text",
      "Length": 12.0,
      "Significant Digits": NaN,
      "Format": NaN,
      "Mandatory": "Yes",
      "Assigned Value": NaN,
      "Codelist": NaN,
      "Common": NaN,
      "Origin": NaN,
      "Source": NaN,
      "Pages": NaN,
      "Method": NaN,
      "Predecessor": NaN,
      "Role": "Identifier",
      "Has No Data": "No",
      "Comment": NaN,
      "Developer Notes": NaN
    },
    {
      "Order": 2,
      "Dataset": "LB",
      "Variable": "DOMAIN",
      "Label": "域名缩写",
      "Data Type": "text",
      "Length": 2.0,
      "Significant Digits": NaN,
      "Format": NaN,
      "Mandatory": "Yes",
      "Assigned Value": NaN,
      "Codelist": NaN,
      "Common": NaN,
      "Origin": NaN,
      "Source": NaN,
      "Pages": NaN,
      "Method": NaN,
      "Predecessor": NaN,
      "Role": "Identifier",
      "Has No Data": "No",
      "Comment": NaN,
      "Developer Notes": NaN
    },
    {
      "Order": 3,
      "Dataset": "LB",
      "Variable": "USUBJID",
      "Label": "受试者唯一标识符",
      "Data Type": "text",
      "Length": 12.0,
      "Significant Digits": NaN,
      "Format": NaN,
      "Mandatory": "No",
      "Assigned Value": NaN,
      "Codelist": NaN,
      "Common": NaN,
      "Origin": NaN,
      "Source": NaN,
      "Pages": NaN,
      "Method": NaN,
      "Predecessor": NaN,
      "Role": "Identifier",
      "Has No Data": "No",
      "Comment": NaN,
      "Developer Notes": NaN
    },
    {
      "Order": 4,
      "Dataset": "LB",
      "Variable": "LBSEQ",
      "Label": "序号",
      "Data Type": "integer",
      "Length": 8.0,
      "Significant Digits": NaN,
      "Format": NaN,
      "Mandatory": "Yes",
      "Assigned Value": NaN,
      "Codelist": NaN,
      "Common": NaN,
      "Origin": NaN,
      "Source": NaN,
      "Pages": NaN,
      "Method": NaN,
      "Predecessor": NaN,
      "Role": "Identifier",
      "Has No Data": "No",
      "Comment": NaN,
      "Developer Notes": NaN
    },
    {
      "Order": 5,
      "Dataset": "LB",
      "Variable": "LBTESTCD",
      "Label": "检测项简称",
      "Data Type": "text",
      "Length": 8.0,
      "Significant Digits": NaN,
      "Format": NaN,
      "Mandatory": "Yes",
      "Assigned Value": NaN,
      "Codelist": NaN,
      "Common": NaN,
      "Origin": NaN,
      "Source": NaN,
      "Pages": NaN,
      "Method": NaN,
      "Predecessor": NaN,
      "Role": "Topic",
      "Has No Data": "No",
      "Comment": NaN,
      "Developer Notes": NaN
    },
    {
      "Order": 6,
      "Dataset": "LB",
      "Variable": "LBTEST",
      "Label": "检测项名称",
      "Data Type": "text",
      "Length": 44.0,
      "Significant Digits": NaN,
      "Format": NaN,
      "Mandatory": "Yes",
      "Assigned Value": NaN,
      "Codelist": NaN,
      "Common": NaN,
      "Origin": NaN,
      "Source": NaN,
      "Pages": NaN,
      "Method": NaN,
      "Predecessor": NaN,
      "Role": "Synonym Qualifier",
      "Has No Data": "No",
      "Comment": NaN,
      "Developer Notes": NaN
    },
    {
      "Order": 7,
      "Dataset": "LB",
      "Variable": "LBCAT",
      "Label": "类别",
      "Data Type": "text",
      "Length": 21.0,
      "Significant Digits": NaN,
      "Format": NaN,
      "Mandatory": "No",
      "Assigned Value": NaN,
      "Codelist": NaN,
      "Common": NaN,
      "Origin": NaN,
      "Source": NaN,
      "Pages": NaN,
      "Method": NaN,
      "Predecessor": NaN,
      "Role": "Grouping Qualifier",
      "Has No Data": "No",
      "Comment": NaN,
      "Developer Notes": NaN
    },
    {
      "Order": 8,
      "Dataset": "LB",
      "Variable": "LBORRES",
      "Label": "原始结果",
      "Data Type": "text",
      "Length": 126.0,
      "Significant Digits": NaN,
      "Format": NaN,
      "Mandatory": "No",
      "Assigned Value": NaN,
      "Codelist": NaN,
      "Common": NaN,
      "Origin": NaN,
      "Source": NaN,
      "Pages": NaN,
      "Method": NaN,
      "Predecessor": NaN,
      "Role": "Result Qualifier",
      "Has No Data": "No",
      "Comment": NaN,
      "Developer Notes": NaN
    },
    {
      "Order": 9,
      "Dataset": "LB",
      "Variable": "LBORRESU",
      "Label": "原始单位",
      "Data Type": "text",
      "Length": 10.0,
      "Significant Digits": NaN,
      "Format": NaN,
      "Mandatory": "No",
      "Assigned Value": NaN,
      "Codelist": NaN,
      "Common": NaN,
      "Origin": NaN,
      "Source": NaN,
      "Pages": NaN,
      "Method": NaN,
      "Predecessor": NaN,
      "Role": "Variable Qualifier",
      "Has No Data": "No",
      "Comment": NaN,
      "Developer Notes": NaN
    },
    {
      "Order": 10,
      "Dataset": "LB",
      "Variable": "LBORNRLO",
      "Label": "原始正常值范围下限",
      "Data Type": "text",
      "Length": 5.0,
      "Significant Digits": NaN,
      "Format": NaN,
      "Mandatory": "No",
      "Assigned Value": NaN,
      "Codelist": NaN,
      "Common": NaN,
      "Origin": NaN,
      "Source": NaN,
      "Pages": NaN,
      "Method": NaN,
      "Predecessor": NaN,
      "Role": "Variable Qualifier",
      "Has No Data": "No",
      "Comment": NaN,
      "Developer Notes": NaN
    },
    {
      "Order": 11,
      "Dataset": "LB",
      "Variable": "LBORNRHI",
      "Label": "原始正常值范围上限",
      "Data Type": "text",
      "Length": 5.0,
      "Significant Digits": NaN,
      "Format": NaN,
      "Mandatory": "No",
      "Assigned Value": NaN,
      "Codelist": NaN,
      "Common": NaN,
      "Origin": NaN,
      "Source": NaN,
      "Pages": NaN,
      "Method": NaN,
      "Predecessor": NaN,
      "Role": "Variable Qualifier",
      "Has No Data": "No",
      "Comment": NaN,
      "Developer Notes": NaN
    },
    {
      "Order": 12,
      "Dataset": "LB",
      "Variable": "LBSTRESC",
      "Label": "标准化结果",
      "Data Type": "text",
      "Length": 126.0,
      "Significant Digits": NaN,
      "Format": NaN,
      "Mandatory": "No",
      "Assigned Value": NaN,
      "Codelist": NaN,
      "Common": NaN,
      "Origin": NaN,
      "Source": NaN,
      "Pages": NaN,
      "Method": NaN,
      "Predecessor": NaN,
      "Role": "Result Qualifier",
      "Has No Data": "No",
      "Comment": NaN,
      "Developer Notes": NaN
    },
    {
      "Order": 13,
      "Dataset": "LB",
      "Variable": "LBSTRESN",
      "Label": "标准化结果(N)",
      "Data Type": "float",
      "Length": 10.0,
      "Significant Digits": 5.0,
      "Format": NaN,
      "Mandatory": "No",
      "Assigned Value": NaN,
      "Codelist": NaN,
      "Common": NaN,
      "Origin": NaN,
      "Source": NaN,
      "Pages": NaN,
      "Method": NaN,
      "Predecessor": NaN,
      "Role": "Result Qualifier",
      "Has No Data": "No",
      "Comment": NaN,
      "Developer Notes": NaN
    },
    {
      "Order": 14,
      "Dataset": "LB",
      "Variable": "LBSTRESU",
      "Label": "标准化单位",
      "Data Type": "text",
      "Length": 10.0,
      "Significant Digits": NaN,
      "Format": NaN,
      "Mandatory": "No",
      "Assigned Value": NaN,
      "Codelist": NaN,
      "Common": NaN,
      "Origin": NaN,
      "Source": NaN,
      "Pages": NaN,
      "Method": NaN,
      "Predecessor": NaN,
      "Role": "Variable Qualifier",
      "Has No Data": "No",
      "Comment": NaN,
      "Developer Notes": NaN
    },
    {
      "Order": 15,
      "Dataset": "LB",
      "Variable": "LBSTNRLO",
      "Label": "标准化正常值范围下限",
      "Data Type": "float",
      "Length": 8.0,
      "Significant Digits": 2.0,
      "Format": NaN,
      "Mandatory": "No",
      "Assigned Value": NaN,
      "Codelist": NaN,
      "Common": NaN,
      "Origin": NaN,
      "Source": NaN,
      "Pages": NaN,
      "Method": NaN,
      "Predecessor": NaN,
      "Role": "Variable Qualifier",
      "Has No Data": "No",
      "Comment": NaN,
      "Developer Notes": NaN
    },
    {
      "Order": 16,
      "Dataset": "LB",
      "Variable": "LBSTNRHI",
      "Label": "标准化正常值范围上限",
      "Data Type": "float",
      "Length": 9.0,
      "Significant Digits": 4.0,
      "Format": NaN,
      "Mandatory": "No",
      "Assigned Value": NaN,
      "Codelist": NaN,
      "Common": NaN,
      "Origin": NaN,
      "Source": NaN,
      "Pages": NaN,
      "Method": NaN,
      "Predecessor": NaN,
      "Role": "Variable Qualifier",
      "Has No Data": "No",
      "Comment": NaN,
      "Developer Notes": NaN
    },
    {
      "Order": 17,
      "Dataset": "LB",
      "Variable": "LBSTNRC",
      "Label": "标准化正常值范围(文本结果)",
      "Data Type": "text",
      "Length": 49.0,
      "Significant Digits": NaN,
      "Format": NaN,
      "Mandatory": "No",
      "Assigned Value": NaN,
      "Codelist": NaN,
      "Common": NaN,
      "Origin": NaN,
      "Source": NaN,
      "Pages": NaN,
      "Method": NaN,
      "Predecessor": NaN,
      "Role": "Variable Qualifier",
      "Has No Data": "No",
      "Comment": NaN,
      "Developer Notes": NaN
    },
    {
      "Order": 18,
      "Dataset": "LB",
      "Variable": "LBNRIND",
      "Label": "相对参考范围指示符",
      "Data Type": "text",
      "Length": 6.0,
      "Significant Digits": NaN,
      "Format": NaN,
      "Mandatory": "No",
      "Assigned Value": NaN,
      "Codelist": NaN,
      "Common": NaN,
      "Origin": NaN,
      "Source": NaN,
      "Pages": NaN,
      "Method": NaN,
      "Predecessor": NaN,
      "Role": "Variable Qualifier",
      "Has No Data": "No",
      "Comment": NaN,
      "Developer Notes": NaN
    },
    {
      "Order": 19,
      "Dataset": "LB",
      "Variable": "LBSTAT",
      "Label": "未做状态",
      "Data Type": "text",
      "Length": 8.0,
      "Significant Digits": NaN,
      "Format": NaN,
      "Mandatory": "No",
      "Assigned Value": NaN,
      "Codelist": NaN,
      "Common": NaN,
      "Origin": NaN,
      "Source": NaN,
      "Pages": NaN,
      "Method": NaN,
      "Predecessor": NaN,
      "Role": "Record Qualifier",
      "Has No Data": "No",
      "Comment": NaN,
      "Developer Notes": NaN
    },
    {
      "Order": 20,
      "Dataset": "LB",
      "Variable": "LBREASND",
      "Label": "未做原因",
      "Data Type": "text",
      "Length": 72.0,
      "Significant Digits": NaN,
      "Format": NaN,
      "Mandatory": "No",
      "Assigned Value": NaN,
      "Codelist": NaN,
      "Common": NaN,
      "Origin": NaN,
      "Source": NaN,
      "Pages": NaN,
      "Method": NaN,
      "Predecessor": NaN,
      "Role": "Record Qualifier",
      "Has No Data": "No",
      "Comment": NaN,
      "Developer Notes": NaN
    },
    {
      "Order": 21,
      "Dataset": "LB",
      "Variable": "LBMETHOD",
      "Label": "检测方法",
      "Data Type": "text",
      "Length": 6.0,
      "Significant Digits": NaN,
      "Format": NaN,
      "Mandatory": "No",
      "Assigned Value": NaN,
      "Codelist": NaN,
      "Common": NaN,
      "Origin": NaN,
      "Source": NaN,
      "Pages": NaN,
      "Method": NaN,
      "Predecessor": NaN,
      "Role": "Record Qualifier",
      "Has No Data": "No",
      "Comment": NaN,
      "Developer Notes": NaN
    },
    {
      "Order": 22,
      "Dataset": "LB",
      "Variable": "LBBLFL",
      "Label": "基线标帜",
      "Data Type": "text",
      "Length": 1.0,
      "Significant Digits": NaN,
      "Format": NaN,
      "Mandatory": "No",
      "Assigned Value": NaN,
      "Codelist": NaN,
      "Common": NaN,
      "Origin": NaN,
      "Source": NaN,
      "Pages": NaN,
      "Method": NaN,
      "Predecessor": NaN,
      "Role": "Record Qualifier",
      "Has No Data": "No",
      "Comment": NaN,
      "Developer Notes": NaN
    },
    {
      "Order": 23,
      "Dataset": "LB",
      "Variable": "VISITNUM",
      "Label": "访视编号",
      "Data Type": "integer",
      "Length": 8.0,
      "Significant Digits": NaN,
      "Format": NaN,
      "Mandatory": "No",
      "Assigned Value": NaN,
      "Codelist": NaN,
      "Common": NaN,
      "Origin": NaN,
      "Source": NaN,
      "Pages": NaN,
      "Method": NaN,
      "Predecessor": NaN,
      "Role": "Timing",
      "Has No Data": "No",
      "Comment": NaN,
      "Developer Notes": NaN
    },
    {
      "Order": 24,
      "Dataset": "LB",
      "Variable": "VISIT",
      "Label": "访视名称",
      "Data Type": "text",
      "Length": 28.0,
      "Significant Digits": NaN,
      "Format": NaN,
      "Mandatory": "No",
      "Assigned Value": NaN,
      "Codelist": NaN,
      "Common": NaN,
      "Origin": NaN,
      "Source": NaN,
      "Pages": NaN,
      "Method": NaN,
      "Predecessor": NaN,
      "Role": "Timing",
      "Has No Data": "No",
      "Comment": NaN,
      "Developer Notes": NaN
    },
    {
      "Order": 25,
      "Dataset": "LB",
      "Variable": "EPOCH",
      "Label": "时期",
      "Data Type": "text",
      "Length": 9.0,
      "Significant Digits": NaN,
      "Format": NaN,
      "Mandatory": "No",
      "Assigned Value": NaN,
      "Codelist": NaN,
      "Common": NaN,
      "Origin": NaN,
      "Source": NaN,
      "Pages": NaN,
      "Method": NaN,
      "Predecessor": NaN,
      "Role": "Timing",
      "Has No Data": "No",
      "Comment": NaN,
      "Developer Notes": NaN
    },
    {
      "Order": 26,
      "Dataset": "LB",
      "Variable": "LBDTC",
      "Label": "样本采集日期/时间",
      "Data Type": "datetime",
      "Length": NaN,
      "Significant Digits": NaN,
      "Format": NaN,
      "Mandatory": "No",
      "Assigned Value": NaN,
      "Codelist": NaN,
      "Common": NaN,
      "Origin": NaN,
      "Source": NaN,
      "Pages": NaN,
      "Method": NaN,
      "Predecessor": NaN,
      "Role": "Timing",
      "Has No Data": "No",
      "Comment": NaN,
      "Developer Notes": NaN
    },
    {
      "Order": 27,
      "Dataset": "LB",
      "Variable": "LBDY",
      "Label": "样本采集日",
      "Data Type": "integer",
      "Length": 8.0,
      "Significant Digits": NaN,
      "Format": NaN,
      "Mandatory": "No",
      "Assigned Value": NaN,
      "Codelist": NaN,
      "Common": NaN,
      "Origin": NaN,
      "Source": NaN,
      "Pages": NaN,
      "Method": NaN,
      "Predecessor": NaN,
      "Role": "Timing",
      "Has No Data": "No",
      "Comment": NaN,
      "Developer Notes": NaN
    },
    {
      "Order": 1,
      "Dataset": "MH",
      "Variable": "STUDYID",
      "Label": "研究标识符",
      "Data Type": "text",
      "Length": 12.0,
      "Significant Digits": NaN,
      "Format": NaN,
      "Mandatory": "Yes",
      "Assigned Value": NaN,
      "Codelist": NaN,
      "Common": NaN,
      "Origin": NaN,
      "Source": NaN,
      "Pages": NaN,
      "Method": NaN,
      "Predecessor": NaN,
      "Role": "Identifier",
      "Has No Data": "No",
      "Comment": NaN,
      "Developer Notes": NaN
    },
    {
      "Order": 2,
      "Dataset": "MH",
      "Variable": "DOMAIN",
      "Label": "域名缩写",
      "Data Type": "text",
      "Length": 2.0,
      "Significant Digits": NaN,
      "Format": NaN,
      "Mandatory": "Yes",
      "Assigned Value": NaN,
      "Codelist": NaN,
      "Common": NaN,
      "Origin": NaN,
      "Source": NaN,
      "Pages": NaN,
      "Method": NaN,
      "Predecessor": NaN,
      "Role": "Identifier",
      "Has No Data": "No",
      "Comment": NaN,
      "Developer Notes": NaN
    },
    {
      "Order": 3,
      "Dataset": "MH",
      "Variable": "USUBJID",
      "Label": "受试者唯一标识符",
      "Data Type": "text",
      "Length": 12.0,
      "Significant Digits": NaN,
      "Format": NaN,
      "Mandatory": "No",
      "Assigned Value": NaN,
      "Codelist": NaN,
      "Common": NaN,
      "Origin": NaN,
      "Source": NaN,
      "Pages": NaN,
      "Method": NaN,
      "Predecessor": NaN,
      "Role": "Identifier",
      "Has No Data": "No",
      "Comment": NaN,
      "Developer Notes": NaN
    },
    {
      "Order": 4,
      "Dataset": "MH",
      "Variable": "MHSEQ",
      "Label": "序号",
      "Data Type": "integer",
      "Length": 8.0,
      "Significant Digits": NaN,
      "Format": NaN,
      "Mandatory": "Yes",
      "Assigned Value": NaN,
      "Codelist": NaN,
      "Common": NaN,
      "Origin": NaN,
      "Source": NaN,
      "Pages": NaN,
      "Method": NaN,
      "Predecessor": NaN,
      "Role": "Identifier",
      "Has No Data": "No",
      "Comment": NaN,
      "Developer Notes": NaN
    },
    {
      "Order": 5,
      "Dataset": "MH",
      "Variable": "MHTERM",
      "Label": "病史报告名称",
      "Data Type": "text",
      "Length": 198.0,
      "Significant Digits": NaN,
      "Format": NaN,
      "Mandatory": "Yes",
      "Assigned Value": NaN,
      "Codelist": NaN,
      "Common": NaN,
      "Origin": NaN,
      "Source": NaN,
      "Pages": NaN,
      "Method": NaN,
      "Predecessor": NaN,
      "Role": "Topic",
      "Has No Data": "No",
      "Comment": NaN,
      "Developer Notes": NaN
    },
    {
      "Order": 6,
      "Dataset": "MH",
      "Variable": "MHDECOD",
      "Label": "标准化名称",
      "Data Type": "text",
      "Length": 34.0,
      "Significant Digits": NaN,
      "Format": NaN,
      "Mandatory": "No",
      "Assigned Value": NaN,
      "Codelist": NaN,
      "Common": NaN,
      "Origin": NaN,
      "Source": NaN,
      "Pages": NaN,
      "Method": NaN,
      "Predecessor": NaN,
      "Role": "Synonym Qualifier",
      "Has No Data": "No",
      "Comment": NaN,
      "Developer Notes": NaN
    },
    {
      "Order": 7,
      "Dataset": "MH",
      "Variable": "MHCAT",
      "Label": "类别",
      "Data Type": "text",
      "Length": 16.0,
      "Significant Digits": NaN,
      "Format": NaN,
      "Mandatory": "No",
      "Assigned Value": NaN,
      "Codelist": NaN,
      "Common": NaN,
      "Origin": NaN,
      "Source": NaN,
      "Pages": NaN,
      "Method": NaN,
      "Predecessor": NaN,
      "Role": "Grouping Qualifier",
      "Has No Data": "No",
      "Comment": NaN,
      "Developer Notes": NaN
    },
    {
      "Order": 8,
      "Dataset": "MH",
      "Variable": "MHBODSYS",
      "Label": "系统器官分类",
      "Data Type": "text",
      "Length": 69.0,
      "Significant Digits": NaN,
      "Format": NaN,
      "Mandatory": "No",
      "Assigned Value": NaN,
      "Codelist": NaN,
      "Common": NaN,
      "Origin": NaN,
      "Source": NaN,
      "Pages": NaN,
      "Method": NaN,
      "Predecessor": NaN,
      "Role": "Record Qualifier",
      "Has No Data": "No",
      "Comment": NaN,
      "Developer Notes": NaN
    },
    {
      "Order": 9,
      "Dataset": "MH",
      "Variable": "MHSTDTC",
      "Label": "开始日期/时间",
      "Data Type": "text",
      "Length": 10.0,
      "Significant Digits": NaN,
      "Format": "$20",
      "Mandatory": "No",
      "Assigned Value": NaN,
      "Codelist": NaN,
      "Common": NaN,
      "Origin": NaN,
      "Source": NaN,
      "Pages": NaN,
      "Method": NaN,
      "Predecessor": NaN,
      "Role": "Timing",
      "Has No Data": "No",
      "Comment": NaN,
      "Developer Notes": NaN
    },
    {
      "Order": 10,
      "Dataset": "MH",
      "Variable": "MHENDTC",
      "Label": "结束日期/时间",
      "Data Type": "datetime",
      "Length": NaN,
      "Significant Digits": NaN,
      "Format": "$20",
      "Mandatory": "No",
      "Assigned Value": NaN,
      "Codelist": NaN,
      "Common": NaN,
      "Origin": NaN,
      "Source": NaN,
      "Pages": NaN,
      "Method": NaN,
      "Predecessor": NaN,
      "Role": "Timing",
      "Has No Data": "No",
      "Comment": NaN,
      "Developer Notes": NaN
    },
    {
      "Order": 1,
      "Dataset": "PC",
      "Variable": "STUDYID",
      "Label": "研究标识符",
      "Data Type": "text",
      "Length": 12.0,
      "Significant Digits": NaN,
      "Format": NaN,
      "Mandatory": "Yes",
      "Assigned Value": NaN,
      "Codelist": NaN,
      "Common": NaN,
      "Origin": NaN,
      "Source": NaN,
      "Pages": NaN,
      "Method": NaN,
      "Predecessor": NaN,
      "Role": "Identifier",
      "Has No Data": "No",
      "Comment": NaN,
      "Developer Notes": NaN
    },
    {
      "Order": 2,
      "Dataset": "PC",
      "Variable": "DOMAIN",
      "Label": "域名缩写",
      "Data Type": "text",
      "Length": 2.0,
      "Significant Digits": NaN,
      "Format": NaN,
      "Mandatory": "Yes",
      "Assigned Value": NaN,
      "Codelist": NaN,
      "Common": NaN,
      "Origin": NaN,
      "Source": NaN,
      "Pages": NaN,
      "Method": NaN,
      "Predecessor": NaN,
      "Role": "Identifier",
      "Has No Data": "No",
      "Comment": NaN,
      "Developer Notes": NaN
    },
    {
      "Order": 3,
      "Dataset": "PC",
      "Variable": "USUBJID",
      "Label": "受试者唯一标识符",
      "Data Type": "text",
      "Length": 12.0,
      "Significant Digits": NaN,
      "Format": NaN,
      "Mandatory": "No",
      "Assigned Value": NaN,
      "Codelist": NaN,
      "Common": NaN,
      "Origin": NaN,
      "Source": NaN,
      "Pages": NaN,
      "Method": NaN,
      "Predecessor": NaN,
      "Role": "Identifier",
      "Has No Data": "No",
      "Comment": NaN,
      "Developer Notes": NaN
    },
    {
      "Order": 4,
      "Dataset": "PC",
      "Variable": "PCSEQ",
      "Label": "序号",
      "Data Type": "integer",
      "Length": 8.0,
      "Significant Digits": NaN,
      "Format": NaN,
      "Mandatory": "Yes",
      "Assigned Value": NaN,
      "Codelist": NaN,
      "Common": NaN,
      "Origin": NaN,
      "Source": NaN,
      "Pages": NaN,
      "Method": NaN,
      "Predecessor": NaN,
      "Role": "Identifier",
      "Has No Data": "No",
      "Comment": NaN,
      "Developer Notes": NaN
    },
    {
      "Order": 5,
      "Dataset": "PC",
      "Variable": "PCGRPID",
      "Label": "组合ID",
      "Data Type": "text",
      "Length": 9.0,
      "Significant Digits": NaN,
      "Format": NaN,
      "Mandatory": "No",
      "Assigned Value": NaN,
      "Codelist": NaN,
      "Common": NaN,
      "Origin": NaN,
      "Source": NaN,
      "Pages": NaN,
      "Method": NaN,
      "Predecessor": NaN,
      "Role": "Identifier",
      "Has No Data": "No",
      "Comment": NaN,
      "Developer Notes": NaN
    },
    {
      "Order": 6,
      "Dataset": "PC",
      "Variable": "PCSPID",
      "Label": "自定义标识符",
      "Data Type": "text",
      "Length": 2.0,
      "Significant Digits": NaN,
      "Format": NaN,
      "Mandatory": "No",
      "Assigned Value": NaN,
      "Codelist": NaN,
      "Common": NaN,
      "Origin": NaN,
      "Source": NaN,
      "Pages": NaN,
      "Method": NaN,
      "Predecessor": NaN,
      "Role": "Identifier",
      "Has No Data": "No",
      "Comment": NaN,
      "Developer Notes": NaN
    },
    {
      "Order": 7,
      "Dataset": "PC",
      "Variable": "PCTESTCD",
      "Label": "检测项简称",
      "Data Type": "text",
      "Length": 7.0,
      "Significant Digits": NaN,
      "Format": NaN,
      "Mandatory": "Yes",
      "Assigned Value": NaN,
      "Codelist": NaN,
      "Common": NaN,
      "Origin": NaN,
      "Source": NaN,
      "Pages": NaN,
      "Method": NaN,
      "Predecessor": NaN,
      "Role": "Topic",
      "Has No Data": "No",
      "Comment": NaN,
      "Developer Notes": NaN
    },
    {
      "Order": 8,
      "Dataset": "PC",
      "Variable": "PCTEST",
      "Label": "检测项名称",
      "Data Type": "text",
      "Length": 37.0,
      "Significant Digits": NaN,
      "Format": NaN,
      "Mandatory": "Yes",
      "Assigned Value": NaN,
      "Codelist": NaN,
      "Common": NaN,
      "Origin": NaN,
      "Source": NaN,
      "Pages": NaN,
      "Method": NaN,
      "Predecessor": NaN,
      "Role": "Synonym Qualifier",
      "Has No Data": "No",
      "Comment": NaN,
      "Developer Notes": NaN
    },
    {
      "Order": 9,
      "Dataset": "PC",
      "Variable": "PCCAT",
      "Label": "类别",
      "Data Type": "text",
      "Length": 7.0,
      "Significant Digits": NaN,
      "Format": NaN,
      "Mandatory": "No",
      "Assigned Value": NaN,
      "Codelist": NaN,
      "Common": NaN,
      "Origin": NaN,
      "Source": NaN,
      "Pages": NaN,
      "Method": NaN,
      "Predecessor": NaN,
      "Role": "Grouping Qualifier",
      "Has No Data": "No",
      "Comment": NaN,
      "Developer Notes": NaN
    },
    {
      "Order": 10,
      "Dataset": "PC",
      "Variable": "PCORRES",
      "Label": "原始结果",
      "Data Type": "text",
      "Length": 10.0,
      "Significant Digits": NaN,
      "Format": NaN,
      "Mandatory": "No",
      "Assigned Value": NaN,
      "Codelist": NaN,
      "Common": NaN,
      "Origin": NaN,
      "Source": NaN,
      "Pages": NaN,
      "Method": NaN,
      "Predecessor": NaN,
      "Role": "Result Qualifier",
      "Has No Data": "No",
      "Comment": NaN,
      "Developer Notes": NaN
    },
    {
      "Order": 11,
      "Dataset": "PC",
      "Variable": "PCORRESU",
      "Label": "原始单位",
      "Data Type": "text",
      "Length": 13.0,
      "Significant Digits": NaN,
      "Format": NaN,
      "Mandatory": "No",
      "Assigned Value": NaN,
      "Codelist": NaN,
      "Common": NaN,
      "Origin": NaN,
      "Source": NaN,
      "Pages": NaN,
      "Method": NaN,
      "Predecessor": NaN,
      "Role": "Variable Qualifier",
      "Has No Data": "No",
      "Comment": NaN,
      "Developer Notes": NaN
    },
    {
      "Order": 12,
      "Dataset": "PC",
      "Variable": "PCSTRESC",
      "Label": "标准化结果",
      "Data Type": "text",
      "Length": 10.0,
      "Significant Digits": NaN,
      "Format": NaN,
      "Mandatory": "No",
      "Assigned Value": NaN,
      "Codelist": NaN,
      "Common": NaN,
      "Origin": NaN,
      "Source": NaN,
      "Pages": NaN,
      "Method": NaN,
      "Predecessor": NaN,
      "Role": "Result Qualifier",
      "Has No Data": "No",
      "Comment": NaN,
      "Developer Notes": NaN
    },
    {
      "Order": 13,
      "Dataset": "PC",
      "Variable": "PCSTRESN",
      "Label": "标准化结果(N)",
      "Data Type": "float",
      "Length": 9.0,
      "Significant Digits": 3.0,
      "Format": NaN,
      "Mandatory": "No",
      "Assigned Value": NaN,
      "Codelist": NaN,
      "Common": NaN,
      "Origin": NaN,
      "Source": NaN,
      "Pages": NaN,
      "Method": NaN,
      "Predecessor": NaN,
      "Role": "Result Qualifier",
      "Has No Data": "No",
      "Comment": NaN,
      "Developer Notes": NaN
    },
    {
      "Order": 14,
      "Dataset": "PC",
      "Variable": "PCSTRESU",
      "Label": "标准化单位",
      "Data Type": "text",
      "Length": 13.0,
      "Significant Digits": NaN,
      "Format": NaN,
      "Mandatory": "No",
      "Assigned Value": NaN,
      "Codelist": NaN,
      "Common": NaN,
      "Origin": NaN,
      "Source": NaN,
      "Pages": NaN,
      "Method": NaN,
      "Predecessor": NaN,
      "Role": "Variable Qualifier",
      "Has No Data": "No",
      "Comment": NaN,
      "Developer Notes": NaN
    },
    {
      "Order": 15,
      "Dataset": "PC",
      "Variable": "PCSTAT",
      "Label": "未做状态",
      "Data Type": "text",
      "Length": 1.0,
      "Significant Digits": NaN,
      "Format": NaN,
      "Mandatory": "No",
      "Assigned Value": NaN,
      "Codelist": NaN,
      "Common": NaN,
      "Origin": NaN,
      "Source": NaN,
      "Pages": NaN,
      "Method": NaN,
      "Predecessor": NaN,
      "Role": "Record Qualifier",
      "Has No Data": "No",
      "Comment": NaN,
      "Developer Notes": NaN
    },
    {
      "Order": 16,
      "Dataset": "PC",
      "Variable": "PCREASND",
      "Label": "未做原因",
      "Data Type": "text",
      "Length": 1.0,
      "Significant Digits": NaN,
      "Format": NaN,
      "Mandatory": "No",
      "Assigned Value": NaN,
      "Codelist": NaN,
      "Common": NaN,
      "Origin": NaN,
      "Source": NaN,
      "Pages": NaN,
      "Method": NaN,
      "Predecessor": NaN,
      "Role": "Record Qualifier",
      "Has No Data": "No",
      "Comment": NaN,
      "Developer Notes": NaN
    },
    {
      "Order": 17,
      "Dataset": "PC",
      "Variable": "PCNAM",
      "Label": "实验室/供应商名称",
      "Data Type": "text",
      "Length": 36.0,
      "Significant Digits": NaN,
      "Format": NaN,
      "Mandatory": "No",
      "Assigned Value": NaN,
      "Codelist": NaN,
      "Common": NaN,
      "Origin": NaN,
      "Source": NaN,
      "Pages": NaN,
      "Method": NaN,
      "Predecessor": NaN,
      "Role": "Record Qualifier",
      "Has No Data": "No",
      "Comment": NaN,
      "Developer Notes": NaN
    },
    {
      "Order": 18,
      "Dataset": "PC",
      "Variable": "PCSPEC",
      "Label": "样本类型",
      "Data Type": "text",
      "Length": 5.0,
      "Significant Digits": NaN,
      "Format": NaN,
      "Mandatory": "No",
      "Assigned Value": NaN,
      "Codelist": NaN,
      "Common": NaN,
      "Origin": NaN,
      "Source": NaN,
      "Pages": NaN,
      "Method": NaN,
      "Predecessor": NaN,
      "Role": "Record Qualifier",
      "Has No Data": "No",
      "Comment": NaN,
      "Developer Notes": NaN
    },
    {
      "Order": 19,
      "Dataset": "PC",
      "Variable": "PCLLOQ",
      "Label": "定量下限",
      "Data Type": "float",
      "Length": 5.0,
      "Significant Digits": 3.0,
      "Format": NaN,
      "Mandatory": "No",
      "Assigned Value": NaN,
      "Codelist": NaN,
      "Common": NaN,
      "Origin": NaN,
      "Source": NaN,
      "Pages": NaN,
      "Method": NaN,
      "Predecessor": NaN,
      "Role": "Variable Qualifier",
      "Has No Data": "No",
      "Comment": NaN,
      "Developer Notes": NaN
    },
    {
      "Order": 20,
      "Dataset": "PC",
      "Variable": "VISITNUM",
      "Label": "访视编号",
      "Data Type": "integer",
      "Length": 8.0,
      "Significant Digits": NaN,
      "Format": NaN,
      "Mandatory": "No",
      "Assigned Value": NaN,
      "Codelist": NaN,
      "Common": NaN,
      "Origin": NaN,
      "Source": NaN,
      "Pages": NaN,
      "Method": NaN,
      "Predecessor": NaN,
      "Role": "Timing",
      "Has No Data": "No",
      "Comment": NaN,
      "Developer Notes": NaN
    },
    {
      "Order": 21,
      "Dataset": "PC",
      "Variable": "VISIT",
      "Label": "访视名称",
      "Data Type": "text",
      "Length": 4.0,
      "Significant Digits": NaN,
      "Format": NaN,
      "Mandatory": "No",
      "Assigned Value": NaN,
      "Codelist": NaN,
      "Common": NaN,
      "Origin": NaN,
      "Source": NaN,
      "Pages": NaN,
      "Method": NaN,
      "Predecessor": NaN,
      "Role": "Timing",
      "Has No Data": "No",
      "Comment": NaN,
      "Developer Notes": NaN
    },
    {
      "Order": 22,
      "Dataset": "PC",
      "Variable": "PCDTC",
      "Label": "样本采集日期/时间",
      "Data Type": "datetime",
      "Length": NaN,
      "Significant Digits": NaN,
      "Format": NaN,
      "Mandatory": "No",
      "Assigned Value": NaN,
      "Codelist": NaN,
      "Common": NaN,
      "Origin": NaN,
      "Source": NaN,
      "Pages": NaN,
      "Method": NaN,
      "Predecessor": NaN,
      "Role": "Timing",
      "Has No Data": "No",
      "Comment": NaN,
      "Developer Notes": NaN
    },
    {
      "Order": 23,
      "Dataset": "PC",
      "Variable": "PCDY",
      "Label": "样本采集日",
      "Data Type": "integer",
      "Length": 8.0,
      "Significant Digits": NaN,
      "Format": NaN,
      "Mandatory": "No",
      "Assigned Value": NaN,
      "Codelist": NaN,
      "Common": NaN,
      "Origin": NaN,
      "Source": NaN,
      "Pages": NaN,
      "Method": NaN,
      "Predecessor": NaN,
      "Role": "Timing",
      "Has No Data": "No",
      "Comment": NaN,
      "Developer Notes": NaN
    },
    {
      "Order": 24,
      "Dataset": "PC",
      "Variable": "PCTPT",
      "Label": "计划时点名称",
      "Data Type": "text",
      "Length": 6.0,
      "Significant Digits": NaN,
      "Format": NaN,
      "Mandatory": "No",
      "Assigned Value": NaN,
      "Codelist": NaN,
      "Common": NaN,
      "Origin": NaN,
      "Source": NaN,
      "Pages": NaN,
      "Method": NaN,
      "Predecessor": NaN,
      "Role": "Timing",
      "Has No Data": "No",
      "Comment": NaN,
      "Developer Notes": NaN
    },
    {
      "Order": 25,
      "Dataset": "PC",
      "Variable": "PCTPTNUM",
      "Label": "计划时点编号",
      "Data Type": "integer",
      "Length": 8.0,
      "Significant Digits": NaN,
      "Format": NaN,
      "Mandatory": "No",
      "Assigned Value": NaN,
      "Codelist": NaN,
      "Common": NaN,
      "Origin": NaN,
      "Source": NaN,
      "Pages": NaN,
      "Method": NaN,
      "Predecessor": NaN,
      "Role": "Timing",
      "Has No Data": "No",
      "Comment": NaN,
      "Developer Notes": NaN
    },
    {
      "Order": 26,
      "Dataset": "PC",
      "Variable": "PCTPTREF",
      "Label": "参照时点",
      "Data Type": "text",
      "Length": 19.0,
      "Significant Digits": NaN,
      "Format": NaN,
      "Mandatory": "No",
      "Assigned Value": NaN,
      "Codelist": NaN,
      "Common": NaN,
      "Origin": NaN,
      "Source": NaN,
      "Pages": NaN,
      "Method": NaN,
      "Predecessor": NaN,
      "Role": "Timing",
      "Has No Data": "No",
      "Comment": NaN,
      "Developer Notes": NaN
    },
    {
      "Order": 27,
      "Dataset": "PC",
      "Variable": "PCRFTDTC",
      "Label": "参照时点日期/时间",
      "Data Type": "datetime",
      "Length": NaN,
      "Significant Digits": NaN,
      "Format": NaN,
      "Mandatory": "No",
      "Assigned Value": NaN,
      "Codelist": NaN,
      "Common": NaN,
      "Origin": NaN,
      "Source": NaN,
      "Pages": NaN,
      "Method": NaN,
      "Predecessor": NaN,
      "Role": "Timing",
      "Has No Data": "No",
      "Comment": NaN,
      "Developer Notes": NaN
    },
    {
      "Order": 1,
      "Dataset": "PE",
      "Variable": "STUDYID",
      "Label": "研究标识符",
      "Data Type": "text",
      "Length": 12.0,
      "Significant Digits": NaN,
      "Format": NaN,
      "Mandatory": "Yes",
      "Assigned Value": NaN,
      "Codelist": NaN,
      "Common": NaN,
      "Origin": NaN,
      "Source": NaN,
      "Pages": NaN,
      "Method": NaN,
      "Predecessor": NaN,
      "Role": "Identifier",
      "Has No Data": "No",
      "Comment": NaN,
      "Developer Notes": NaN
    },
    {
      "Order": 2,
      "Dataset": "PE",
      "Variable": "DOMAIN",
      "Label": "域名缩写",
      "Data Type": "text",
      "Length": 2.0,
      "Significant Digits": NaN,
      "Format": NaN,
      "Mandatory": "Yes",
      "Assigned Value": NaN,
      "Codelist": NaN,
      "Common": NaN,
      "Origin": NaN,
      "Source": NaN,
      "Pages": NaN,
      "Method": NaN,
      "Predecessor": NaN,
      "Role": "Identifier",
      "Has No Data": "No",
      "Comment": NaN,
      "Developer Notes": NaN
    },
    {
      "Order": 3,
      "Dataset": "PE",
      "Variable": "USUBJID",
      "Label": "受试者唯一标识符",
      "Data Type": "text",
      "Length": 12.0,
      "Significant Digits": NaN,
      "Format": NaN,
      "Mandatory": "No",
      "Assigned Value": NaN,
      "Codelist": NaN,
      "Common": NaN,
      "Origin": NaN,
      "Source": NaN,
      "Pages": NaN,
      "Method": NaN,
      "Predecessor": NaN,
      "Role": "Identifier",
      "Has No Data": "No",
      "Comment": NaN,
      "Developer Notes": NaN
    },
    {
      "Order": 4,
      "Dataset": "PE",
      "Variable": "PESEQ",
      "Label": "序号",
      "Data Type": "integer",
      "Length": 8.0,
      "Significant Digits": NaN,
      "Format": NaN,
      "Mandatory": "Yes",
      "Assigned Value": NaN,
      "Codelist": NaN,
      "Common": NaN,
      "Origin": NaN,
      "Source": NaN,
      "Pages": NaN,
      "Method": NaN,
      "Predecessor": NaN,
      "Role": "Identifier",
      "Has No Data": "No",
      "Comment": NaN,
      "Developer Notes": NaN
    },
    {
      "Order": 5,
      "Dataset": "PE",
      "Variable": "PETESTCD",
      "Label": "检查项简称",
      "Data Type": "text",
      "Length": 5.0,
      "Significant Digits": NaN,
      "Format": NaN,
      "Mandatory": "Yes",
      "Assigned Value": NaN,
      "Codelist": NaN,
      "Common": NaN,
      "Origin": NaN,
      "Source": NaN,
      "Pages": NaN,
      "Method": NaN,
      "Predecessor": NaN,
      "Role": "Topic",
      "Has No Data": "No",
      "Comment": NaN,
      "Developer Notes": NaN
    },
    {
      "Order": 6,
      "Dataset": "PE",
      "Variable": "PETEST",
      "Label": "检查项名称",
      "Data Type": "text",
      "Length": 21.0,
      "Significant Digits": NaN,
      "Format": NaN,
      "Mandatory": "Yes",
      "Assigned Value": NaN,
      "Codelist": NaN,
      "Common": NaN,
      "Origin": NaN,
      "Source": NaN,
      "Pages": NaN,
      "Method": NaN,
      "Predecessor": NaN,
      "Role": "Synonym Qualifier",
      "Has No Data": "No",
      "Comment": NaN,
      "Developer Notes": NaN
    },
    {
      "Order": 7,
      "Dataset": "PE",
      "Variable": "PECAT",
      "Label": "类别",
      "Data Type": "text",
      "Length": 12.0,
      "Significant Digits": NaN,
      "Format": NaN,
      "Mandatory": "No",
      "Assigned Value": NaN,
      "Codelist": NaN,
      "Common": NaN,
      "Origin": NaN,
      "Source": NaN,
      "Pages": NaN,
      "Method": NaN,
      "Predecessor": NaN,
      "Role": "Grouping Qualifier",
      "Has No Data": "No",
      "Comment": NaN,
      "Developer Notes": NaN
    },
    {
      "Order": 8,
      "Dataset": "PE",
      "Variable": "PEORRES",
      "Label": "原始结果",
      "Data Type": "text",
      "Length": 21.0,
      "Significant Digits": NaN,
      "Format": NaN,
      "Mandatory": "No",
      "Assigned Value": NaN,
      "Codelist": NaN,
      "Common": NaN,
      "Origin": NaN,
      "Source": NaN,
      "Pages": NaN,
      "Method": NaN,
      "Predecessor": NaN,
      "Role": "Result Qualifier",
      "Has No Data": "No",
      "Comment": NaN,
      "Developer Notes": NaN
    },
    {
      "Order": 9,
      "Dataset": "PE",
      "Variable": "PESTRESC",
      "Label": "标准化结果",
      "Data Type": "text",
      "Length": 21.0,
      "Significant Digits": NaN,
      "Format": NaN,
      "Mandatory": "No",
      "Assigned Value": NaN,
      "Codelist": NaN,
      "Common": NaN,
      "Origin": NaN,
      "Source": NaN,
      "Pages": NaN,
      "Method": NaN,
      "Predecessor": NaN,
      "Role": "Result Qualifier",
      "Has No Data": "No",
      "Comment": NaN,
      "Developer Notes": NaN
    },
    {
      "Order": 10,
      "Dataset": "PE",
      "Variable": "PESTAT",
      "Label": "未做状态",
      "Data Type": "text",
      "Length": 8.0,
      "Significant Digits": NaN,
      "Format": NaN,
      "Mandatory": "No",
      "Assigned Value": NaN,
      "Codelist": NaN,
      "Common": NaN,
      "Origin": NaN,
      "Source": NaN,
      "Pages": NaN,
      "Method": NaN,
      "Predecessor": NaN,
      "Role": "Record Qualifier",
      "Has No Data": "No",
      "Comment": NaN,
      "Developer Notes": NaN
    },
    {
      "Order": 11,
      "Dataset": "PE",
      "Variable": "PEREASND",
      "Label": "未做原因",
      "Data Type": "text",
      "Length": 17.0,
      "Significant Digits": NaN,
      "Format": NaN,
      "Mandatory": "No",
      "Assigned Value": NaN,
      "Codelist": NaN,
      "Common": NaN,
      "Origin": NaN,
      "Source": NaN,
      "Pages": NaN,
      "Method": NaN,
      "Predecessor": NaN,
      "Role": "Record Qualifier",
      "Has No Data": "No",
      "Comment": NaN,
      "Developer Notes": NaN
    },
    {
      "Order": 12,
      "Dataset": "PE",
      "Variable": "VISITNUM",
      "Label": "访视编号",
      "Data Type": "integer",
      "Length": 8.0,
      "Significant Digits": NaN,
      "Format": NaN,
      "Mandatory": "No",
      "Assigned Value": NaN,
      "Codelist": NaN,
      "Common": NaN,
      "Origin": NaN,
      "Source": NaN,
      "Pages": NaN,
      "Method": NaN,
      "Predecessor": NaN,
      "Role": "Timing",
      "Has No Data": "No",
      "Comment": NaN,
      "Developer Notes": NaN
    },
    {
      "Order": 13,
      "Dataset": "PE",
      "Variable": "VISIT",
      "Label": "访视名称",
      "Data Type": "text",
      "Length": 28.0,
      "Significant Digits": NaN,
      "Format": NaN,
      "Mandatory": "No",
      "Assigned Value": NaN,
      "Codelist": NaN,
      "Common": NaN,
      "Origin": NaN,
      "Source": NaN,
      "Pages": NaN,
      "Method": NaN,
      "Predecessor": NaN,
      "Role": "Timing",
      "Has No Data": "No",
      "Comment": NaN,
      "Developer Notes": NaN
    },
    {
      "Order": 14,
      "Dataset": "PE",
      "Variable": "EPOCH",
      "Label": "时期",
      "Data Type": "text",
      "Length": 9.0,
      "Significant Digits": NaN,
      "Format": NaN,
      "Mandatory": "No",
      "Assigned Value": NaN,
      "Codelist": NaN,
      "Common": NaN,
      "Origin": NaN,
      "Source": NaN,
      "Pages": NaN,
      "Method": NaN,
      "Predecessor": NaN,
      "Role": "Timing",
      "Has No Data": "No",
      "Comment": NaN,
      "Developer Notes": NaN
    },
    {
      "Order": 15,
      "Dataset": "PE",
      "Variable": "PEDTC",
      "Label": "检查日期/时间",
      "Data Type": "datetime",
      "Length": NaN,
      "Significant Digits": NaN,
      "Format": NaN,
      "Mandatory": "No",
      "Assigned Value": NaN,
      "Codelist": NaN,
      "Common": NaN,
      "Origin": NaN,
      "Source": NaN,
      "Pages": NaN,
      "Method": NaN,
      "Predecessor": NaN,
      "Role": "Timing",
      "Has No Data": "No",
      "Comment": NaN,
      "Developer Notes": NaN
    },
    {
      "Order": 16,
      "Dataset": "PE",
      "Variable": "PEDY",
      "Label": "检查日",
      "Data Type": "integer",
      "Length": 8.0,
      "Significant Digits": NaN,
      "Format": NaN,
      "Mandatory": "No",
      "Assigned Value": NaN,
      "Codelist": NaN,
      "Common": NaN,
      "Origin": NaN,
      "Source": NaN,
      "Pages": NaN,
      "Method": NaN,
      "Predecessor": NaN,
      "Role": "Timing",
      "Has No Data": "No",
      "Comment": NaN,
      "Developer Notes": NaN
    },
    {
      "Order": 1,
      "Dataset": "PP",
      "Variable": "STUDYID",
      "Label": "研究标识符",
      "Data Type": "text",
      "Length": 12.0,
      "Significant Digits": NaN,
      "Format": NaN,
      "Mandatory": "Yes",
      "Assigned Value": NaN,
      "Codelist": NaN,
      "Common": NaN,
      "Origin": NaN,
      "Source": NaN,
      "Pages": NaN,
      "Method": NaN,
      "Predecessor": NaN,
      "Role": "Identifier",
      "Has No Data": "No",
      "Comment": NaN,
      "Developer Notes": NaN
    },
    {
      "Order": 2,
      "Dataset": "PP",
      "Variable": "DOMAIN",
      "Label": "域名缩写",
      "Data Type": "text",
      "Length": 2.0,
      "Significant Digits": NaN,
      "Format": NaN,
      "Mandatory": "Yes",
      "Assigned Value": NaN,
      "Codelist": NaN,
      "Common": NaN,
      "Origin": NaN,
      "Source": NaN,
      "Pages": NaN,
      "Method": NaN,
      "Predecessor": NaN,
      "Role": "Identifier",
      "Has No Data": "No",
      "Comment": NaN,
      "Developer Notes": NaN
    },
    {
      "Order": 3,
      "Dataset": "PP",
      "Variable": "USUBJID",
      "Label": "受试者唯一标识符",
      "Data Type": "text",
      "Length": 12.0,
      "Significant Digits": NaN,
      "Format": NaN,
      "Mandatory": "No",
      "Assigned Value": NaN,
      "Codelist": NaN,
      "Common": NaN,
      "Origin": NaN,
      "Source": NaN,
      "Pages": NaN,
      "Method": NaN,
      "Predecessor": NaN,
      "Role": "Identifier",
      "Has No Data": "No",
      "Comment": NaN,
      "Developer Notes": NaN
    },
    {
      "Order": 4,
      "Dataset": "PP",
      "Variable": "PPSEQ",
      "Label": "序号",
      "Data Type": "integer",
      "Length": 8.0,
      "Significant Digits": NaN,
      "Format": NaN,
      "Mandatory": "Yes",
      "Assigned Value": NaN,
      "Codelist": NaN,
      "Common": NaN,
      "Origin": NaN,
      "Source": NaN,
      "Pages": NaN,
      "Method": NaN,
      "Predecessor": NaN,
      "Role": "Identifier",
      "Has No Data": "No",
      "Comment": NaN,
      "Developer Notes": NaN
    },
    {
      "Order": 5,
      "Dataset": "PP",
      "Variable": "PPTESTCD",
      "Label": "参数简称",
      "Data Type": "text",
      "Length": 7.0,
      "Significant Digits": NaN,
      "Format": NaN,
      "Mandatory": "Yes",
      "Assigned Value": NaN,
      "Codelist": NaN,
      "Common": NaN,
      "Origin": NaN,
      "Source": NaN,
      "Pages": NaN,
      "Method": NaN,
      "Predecessor": NaN,
      "Role": "Topic",
      "Has No Data": "No",
      "Comment": NaN,
      "Developer Notes": NaN
    },
    {
      "Order": 6,
      "Dataset": "PP",
      "Variable": "PPTEST",
      "Label": "参数名称",
      "Data Type": "text",
      "Length": 68.0,
      "Significant Digits": NaN,
      "Format": NaN,
      "Mandatory": "Yes",
      "Assigned Value": NaN,
      "Codelist": NaN,
      "Common": NaN,
      "Origin": NaN,
      "Source": NaN,
      "Pages": NaN,
      "Method": NaN,
      "Predecessor": NaN,
      "Role": "Synonym Qualifier",
      "Has No Data": "No",
      "Comment": NaN,
      "Developer Notes": NaN
    },
    {
      "Order": 7,
      "Dataset": "PP",
      "Variable": "PPCAT",
      "Label": "类别",
      "Data Type": "text",
      "Length": 24.0,
      "Significant Digits": NaN,
      "Format": NaN,
      "Mandatory": "No",
      "Assigned Value": NaN,
      "Codelist": NaN,
      "Common": NaN,
      "Origin": NaN,
      "Source": NaN,
      "Pages": NaN,
      "Method": NaN,
      "Predecessor": NaN,
      "Role": "Grouping Qualifier",
      "Has No Data": "No",
      "Comment": NaN,
      "Developer Notes": NaN
    },
    {
      "Order": 8,
      "Dataset": "PP",
      "Variable": "PPORRES",
      "Label": "原始结果",
      "Data Type": "text",
      "Length": 11.0,
      "Significant Digits": NaN,
      "Format": NaN,
      "Mandatory": "No",
      "Assigned Value": NaN,
      "Codelist": NaN,
      "Common": NaN,
      "Origin": NaN,
      "Source": NaN,
      "Pages": NaN,
      "Method": NaN,
      "Predecessor": NaN,
      "Role": "Result Qualifier",
      "Has No Data": "No",
      "Comment": NaN,
      "Developer Notes": NaN
    },
    {
      "Order": 9,
      "Dataset": "PP",
      "Variable": "PPORRESU",
      "Label": "原始单位",
      "Data Type": "text",
      "Length": 7.0,
      "Significant Digits": NaN,
      "Format": NaN,
      "Mandatory": "No",
      "Assigned Value": NaN,
      "Codelist": NaN,
      "Common": NaN,
      "Origin": NaN,
      "Source": NaN,
      "Pages": NaN,
      "Method": NaN,
      "Predecessor": NaN,
      "Role": "Variable Qualifier",
      "Has No Data": "No",
      "Comment": NaN,
      "Developer Notes": NaN
    },
    {
      "Order": 10,
      "Dataset": "PP",
      "Variable": "PPSTRESC",
      "Label": "标准化结果",
      "Data Type": "text",
      "Length": 11.0,
      "Significant Digits": NaN,
      "Format": NaN,
      "Mandatory": "No",
      "Assigned Value": NaN,
      "Codelist": NaN,
      "Common": NaN,
      "Origin": NaN,
      "Source": NaN,
      "Pages": NaN,
      "Method": NaN,
      "Predecessor": NaN,
      "Role": "Result Qualifier",
      "Has No Data": "No",
      "Comment": NaN,
      "Developer Notes": NaN
    },
    {
      "Order": 11,
      "Dataset": "PP",
      "Variable": "PPSTRESN",
      "Label": "标准化结果(N)",
      "Data Type": "float",
      "Length": 10.0,
      "Significant Digits": 3.0,
      "Format": NaN,
      "Mandatory": "No",
      "Assigned Value": NaN,
      "Codelist": NaN,
      "Common": NaN,
      "Origin": NaN,
      "Source": NaN,
      "Pages": NaN,
      "Method": NaN,
      "Predecessor": NaN,
      "Role": "Result Qualifier",
      "Has No Data": "No",
      "Comment": NaN,
      "Developer Notes": NaN
    },
    {
      "Order": 12,
      "Dataset": "PP",
      "Variable": "PPSTRESU",
      "Label": "标准化单位",
      "Data Type": "text",
      "Length": 7.0,
      "Significant Digits": NaN,
      "Format": NaN,
      "Mandatory": "No",
      "Assigned Value": NaN,
      "Codelist": NaN,
      "Common": NaN,
      "Origin": NaN,
      "Source": NaN,
      "Pages": NaN,
      "Method": NaN,
      "Predecessor": NaN,
      "Role": "Variable Qualifier",
      "Has No Data": "No",
      "Comment": NaN,
      "Developer Notes": NaN
    },
    {
      "Order": 13,
      "Dataset": "PP",
      "Variable": "PPSTAT",
      "Label": "未做状态",
      "Data Type": "text",
      "Length": 1.0,
      "Significant Digits": NaN,
      "Format": NaN,
      "Mandatory": "No",
      "Assigned Value": NaN,
      "Codelist": NaN,
      "Common": NaN,
      "Origin": NaN,
      "Source": NaN,
      "Pages": NaN,
      "Method": NaN,
      "Predecessor": NaN,
      "Role": "Record Qualifier",
      "Has No Data": "No",
      "Comment": NaN,
      "Developer Notes": NaN
    },
    {
      "Order": 14,
      "Dataset": "PP",
      "Variable": "PPREASND",
      "Label": "未做原因",
      "Data Type": "text",
      "Length": 1.0,
      "Significant Digits": NaN,
      "Format": NaN,
      "Mandatory": "No",
      "Assigned Value": NaN,
      "Codelist": NaN,
      "Common": NaN,
      "Origin": NaN,
      "Source": NaN,
      "Pages": NaN,
      "Method": NaN,
      "Predecessor": NaN,
      "Role": "Record Qualifier",
      "Has No Data": "No",
      "Comment": NaN,
      "Developer Notes": NaN
    },
    {
      "Order": 15,
      "Dataset": "PP",
      "Variable": "PPSPEC",
      "Label": "样本类型",
      "Data Type": "text",
      "Length": 6.0,
      "Significant Digits": NaN,
      "Format": NaN,
      "Mandatory": "No",
      "Assigned Value": NaN,
      "Codelist": NaN,
      "Common": NaN,
      "Origin": NaN,
      "Source": NaN,
      "Pages": NaN,
      "Method": NaN,
      "Predecessor": NaN,
      "Role": "Record Qualifier",
      "Has No Data": "No",
      "Comment": NaN,
      "Developer Notes": NaN
    },
    {
      "Order": 16,
      "Dataset": "PP",
      "Variable": "PPRFTDTC",
      "Label": "参照时点日期/时间",
      "Data Type": "datetime",
      "Length": NaN,
      "Significant Digits": NaN,
      "Format": NaN,
      "Mandatory": "No",
      "Assigned Value": NaN,
      "Codelist": NaN,
      "Common": NaN,
      "Origin": NaN,
      "Source": NaN,
      "Pages": NaN,
      "Method": NaN,
      "Predecessor": NaN,
      "Role": "Timing",
      "Has No Data": "No",
      "Comment": NaN,
      "Developer Notes": NaN
    },
    {
      "Order": 1,
      "Dataset": "PR",
      "Variable": "STUDYID",
      "Label": "研究标识符",
      "Data Type": "text",
      "Length": 12.0,
      "Significant Digits": NaN,
      "Format": NaN,
      "Mandatory": "Yes",
      "Assigned Value": NaN,
      "Codelist": NaN,
      "Common": NaN,
      "Origin": NaN,
      "Source": NaN,
      "Pages": NaN,
      "Method": NaN,
      "Predecessor": NaN,
      "Role": "Identifier",
      "Has No Data": "No",
      "Comment": NaN,
      "Developer Notes": NaN
    },
    {
      "Order": 2,
      "Dataset": "PR",
      "Variable": "DOMAIN",
      "Label": "域名缩写",
      "Data Type": "text",
      "Length": 2.0,
      "Significant Digits": NaN,
      "Format": NaN,
      "Mandatory": "Yes",
      "Assigned Value": NaN,
      "Codelist": NaN,
      "Common": NaN,
      "Origin": NaN,
      "Source": NaN,
      "Pages": NaN,
      "Method": NaN,
      "Predecessor": NaN,
      "Role": "Identifier",
      "Has No Data": "No",
      "Comment": NaN,
      "Developer Notes": NaN
    },
    {
      "Order": 3,
      "Dataset": "PR",
      "Variable": "USUBJID",
      "Label": "受试者唯一标识符",
      "Data Type": "text",
      "Length": 12.0,
      "Significant Digits": NaN,
      "Format": NaN,
      "Mandatory": "No",
      "Assigned Value": NaN,
      "Codelist": NaN,
      "Common": NaN,
      "Origin": NaN,
      "Source": NaN,
      "Pages": NaN,
      "Method": NaN,
      "Predecessor": NaN,
      "Role": "Identifier",
      "Has No Data": "No",
      "Comment": NaN,
      "Developer Notes": NaN
    },
    {
      "Order": 4,
      "Dataset": "PR",
      "Variable": "PRSEQ",
      "Label": "序号",
      "Data Type": "integer",
      "Length": 8.0,
      "Significant Digits": NaN,
      "Format": NaN,
      "Mandatory": "Yes",
      "Assigned Value": NaN,
      "Codelist": NaN,
      "Common": NaN,
      "Origin": NaN,
      "Source": NaN,
      "Pages": NaN,
      "Method": NaN,
      "Predecessor": NaN,
      "Role": "Identifier",
      "Has No Data": "No",
      "Comment": NaN,
      "Developer Notes": NaN
    },
    {
      "Order": 5,
      "Dataset": "PR",
      "Variable": "PRTRT",
      "Label": "操作报告名称",
      "Data Type": "text",
      "Length": 86.0,
      "Significant Digits": NaN,
      "Format": NaN,
      "Mandatory": "Yes",
      "Assigned Value": NaN,
      "Codelist": NaN,
      "Common": NaN,
      "Origin": NaN,
      "Source": NaN,
      "Pages": NaN,
      "Method": NaN,
      "Predecessor": NaN,
      "Role": "Topic",
      "Has No Data": "No",
      "Comment": NaN,
      "Developer Notes": NaN
    },
    {
      "Order": 6,
      "Dataset": "PR",
      "Variable": "PRCAT",
      "Label": "类别",
      "Data Type": "text",
      "Length": 34.0,
      "Significant Digits": NaN,
      "Format": NaN,
      "Mandatory": "No",
      "Assigned Value": NaN,
      "Codelist": NaN,
      "Common": NaN,
      "Origin": NaN,
      "Source": NaN,
      "Pages": NaN,
      "Method": NaN,
      "Predecessor": NaN,
      "Role": "Grouping Qualifier",
      "Has No Data": "No",
      "Comment": NaN,
      "Developer Notes": NaN
    },
    {
      "Order": 7,
      "Dataset": "PR",
      "Variable": "PRINDC",
      "Label": "适应症",
      "Data Type": "text",
      "Length": 12.0,
      "Significant Digits": NaN,
      "Format": "$40",
      "Mandatory": "No",
      "Assigned Value": NaN,
      "Codelist": NaN,
      "Common": NaN,
      "Origin": NaN,
      "Source": NaN,
      "Pages": NaN,
      "Method": NaN,
      "Predecessor": NaN,
      "Role": "Record Qualifier",
      "Has No Data": "No",
      "Comment": NaN,
      "Developer Notes": NaN
    },
    {
      "Order": 8,
      "Dataset": "PR",
      "Variable": "PRSTDTC",
      "Label": "开始日期/时间",
      "Data Type": "datetime",
      "Length": NaN,
      "Significant Digits": NaN,
      "Format": "$20",
      "Mandatory": "No",
      "Assigned Value": NaN,
      "Codelist": NaN,
      "Common": NaN,
      "Origin": NaN,
      "Source": NaN,
      "Pages": NaN,
      "Method": NaN,
      "Predecessor": NaN,
      "Role": "Timing",
      "Has No Data": "No",
      "Comment": NaN,
      "Developer Notes": NaN
    },
    {
      "Order": 9,
      "Dataset": "PR",
      "Variable": "PRENDTC",
      "Label": "结束日期/时间",
      "Data Type": "datetime",
      "Length": NaN,
      "Significant Digits": NaN,
      "Format": "$20",
      "Mandatory": "No",
      "Assigned Value": NaN,
      "Codelist": NaN,
      "Common": NaN,
      "Origin": NaN,
      "Source": NaN,
      "Pages": NaN,
      "Method": NaN,
      "Predecessor": NaN,
      "Role": "Timing",
      "Has No Data": "No",
      "Comment": NaN,
      "Developer Notes": NaN
    },
    {
      "Order": 10,
      "Dataset": "PR",
      "Variable": "PRSTDY",
      "Label": "开始日",
      "Data Type": "integer",
      "Length": 8.0,
      "Significant Digits": NaN,
      "Format": NaN,
      "Mandatory": "No",
      "Assigned Value": NaN,
      "Codelist": NaN,
      "Common": NaN,
      "Origin": NaN,
      "Source": NaN,
      "Pages": NaN,
      "Method": NaN,
      "Predecessor": NaN,
      "Role": "Timing",
      "Has No Data": "No",
      "Comment": NaN,
      "Developer Notes": NaN
    },
    {
      "Order": 11,
      "Dataset": "PR",
      "Variable": "PRENDY",
      "Label": "结束日",
      "Data Type": "integer",
      "Length": 8.0,
      "Significant Digits": NaN,
      "Format": NaN,
      "Mandatory": "No",
      "Assigned Value": NaN,
      "Codelist": NaN,
      "Common": NaN,
      "Origin": NaN,
      "Source": NaN,
      "Pages": NaN,
      "Method": NaN,
      "Predecessor": NaN,
      "Role": "Timing",
      "Has No Data": "No",
      "Comment": NaN,
      "Developer Notes": NaN
    },
    {
      "Order": 1,
      "Dataset": "QS",
      "Variable": "STUDYID",
      "Label": "研究标识符",
      "Data Type": "text",
      "Length": 12.0,
      "Significant Digits": NaN,
      "Format": NaN,
      "Mandatory": "Yes",
      "Assigned Value": NaN,
      "Codelist": NaN,
      "Common": NaN,
      "Origin": NaN,
      "Source": NaN,
      "Pages": NaN,
      "Method": NaN,
      "Predecessor": NaN,
      "Role": "Identifier",
      "Has No Data": "No",
      "Comment": NaN,
      "Developer Notes": NaN
    },
    {
      "Order": 2,
      "Dataset": "QS",
      "Variable": "DOMAIN",
      "Label": "域名缩写",
      "Data Type": "text",
      "Length": 2.0,
      "Significant Digits": NaN,
      "Format": NaN,
      "Mandatory": "Yes",
      "Assigned Value": NaN,
      "Codelist": NaN,
      "Common": NaN,
      "Origin": NaN,
      "Source": NaN,
      "Pages": NaN,
      "Method": NaN,
      "Predecessor": NaN,
      "Role": "Identifier",
      "Has No Data": "No",
      "Comment": NaN,
      "Developer Notes": NaN
    },
    {
      "Order": 3,
      "Dataset": "QS",
      "Variable": "USUBJID",
      "Label": "受试者唯一标识符",
      "Data Type": "text",
      "Length": 12.0,
      "Significant Digits": NaN,
      "Format": NaN,
      "Mandatory": "No",
      "Assigned Value": NaN,
      "Codelist": NaN,
      "Common": NaN,
      "Origin": NaN,
      "Source": NaN,
      "Pages": NaN,
      "Method": NaN,
      "Predecessor": NaN,
      "Role": "Identifier",
      "Has No Data": "No",
      "Comment": NaN,
      "Developer Notes": NaN
    },
    {
      "Order": 4,
      "Dataset": "QS",
      "Variable": "QSSEQ",
      "Label": "序号",
      "Data Type": "integer",
      "Length": 8.0,
      "Significant Digits": NaN,
      "Format": NaN,
      "Mandatory": "Yes",
      "Assigned Value": NaN,
      "Codelist": NaN,
      "Common": NaN,
      "Origin": NaN,
      "Source": NaN,
      "Pages": NaN,
      "Method": NaN,
      "Predecessor": NaN,
      "Role": "Identifier",
      "Has No Data": "No",
      "Comment": NaN,
      "Developer Notes": NaN
    },
    {
      "Order": 5,
      "Dataset": "QS",
      "Variable": "QSTESTCD",
      "Label": "问题简称",
      "Data Type": "text",
      "Length": 4.0,
      "Significant Digits": NaN,
      "Format": NaN,
      "Mandatory": "Yes",
      "Assigned Value": NaN,
      "Codelist": NaN,
      "Common": NaN,
      "Origin": NaN,
      "Source": NaN,
      "Pages": NaN,
      "Method": NaN,
      "Predecessor": NaN,
      "Role": "Topic",
      "Has No Data": "No",
      "Comment": NaN,
      "Developer Notes": NaN
    },
    {
      "Order": 6,
      "Dataset": "QS",
      "Variable": "QSTEST",
      "Label": "问题名称",
      "Data Type": "text",
      "Length": 10.0,
      "Significant Digits": NaN,
      "Format": NaN,
      "Mandatory": "Yes",
      "Assigned Value": NaN,
      "Codelist": NaN,
      "Common": NaN,
      "Origin": NaN,
      "Source": NaN,
      "Pages": NaN,
      "Method": NaN,
      "Predecessor": NaN,
      "Role": "Synonym Qualifier",
      "Has No Data": "No",
      "Comment": NaN,
      "Developer Notes": NaN
    },
    {
      "Order": 7,
      "Dataset": "QS",
      "Variable": "QSCAT",
      "Label": "类别",
      "Data Type": "text",
      "Length": 13.0,
      "Significant Digits": NaN,
      "Format": NaN,
      "Mandatory": "Yes",
      "Assigned Value": NaN,
      "Codelist": NaN,
      "Common": NaN,
      "Origin": NaN,
      "Source": NaN,
      "Pages": NaN,
      "Method": NaN,
      "Predecessor": NaN,
      "Role": "Grouping Qualifier",
      "Has No Data": "No",
      "Comment": NaN,
      "Developer Notes": NaN
    },
    {
      "Order": 8,
      "Dataset": "QS",
      "Variable": "QSORRES",
      "Label": "原始结果",
      "Data Type": "text",
      "Length": 1.0,
      "Significant Digits": NaN,
      "Format": NaN,
      "Mandatory": "No",
      "Assigned Value": NaN,
      "Codelist": NaN,
      "Common": NaN,
      "Origin": NaN,
      "Source": NaN,
      "Pages": NaN,
      "Method": NaN,
      "Predecessor": NaN,
      "Role": "Result Qualifier",
      "Has No Data": "No",
      "Comment": NaN,
      "Developer Notes": NaN
    },
    {
      "Order": 9,
      "Dataset": "QS",
      "Variable": "QSORRESU",
      "Label": "原始单位",
      "Data Type": "text",
      "Length": 3.0,
      "Significant Digits": NaN,
      "Format": NaN,
      "Mandatory": "No",
      "Assigned Value": NaN,
      "Codelist": NaN,
      "Common": NaN,
      "Origin": NaN,
      "Source": NaN,
      "Pages": NaN,
      "Method": NaN,
      "Predecessor": NaN,
      "Role": "Variable Qualifier",
      "Has No Data": "No",
      "Comment": NaN,
      "Developer Notes": NaN
    },
    {
      "Order": 10,
      "Dataset": "QS",
      "Variable": "QSSTRESC",
      "Label": "标准化结果",
      "Data Type": "text",
      "Length": 1.0,
      "Significant Digits": NaN,
      "Format": NaN,
      "Mandatory": "No",
      "Assigned Value": NaN,
      "Codelist": NaN,
      "Common": NaN,
      "Origin": NaN,
      "Source": NaN,
      "Pages": NaN,
      "Method": NaN,
      "Predecessor": NaN,
      "Role": "Result Qualifier",
      "Has No Data": "No",
      "Comment": NaN,
      "Developer Notes": NaN
    },
    {
      "Order": 11,
      "Dataset": "QS",
      "Variable": "QSSTRESN",
      "Label": "标准化结果(N)",
      "Data Type": "integer",
      "Length": 8.0,
      "Significant Digits": NaN,
      "Format": NaN,
      "Mandatory": "No",
      "Assigned Value": NaN,
      "Codelist": NaN,
      "Common": NaN,
      "Origin": NaN,
      "Source": NaN,
      "Pages": NaN,
      "Method": NaN,
      "Predecessor": NaN,
      "Role": "Result Qualifier",
      "Has No Data": "No",
      "Comment": NaN,
      "Developer Notes": NaN
    },
    {
      "Order": 12,
      "Dataset": "QS",
      "Variable": "QSSTRESU",
      "Label": "标准化单位",
      "Data Type": "text",
      "Length": 3.0,
      "Significant Digits": NaN,
      "Format": NaN,
      "Mandatory": "No",
      "Assigned Value": NaN,
      "Codelist": NaN,
      "Common": NaN,
      "Origin": NaN,
      "Source": NaN,
      "Pages": NaN,
      "Method": NaN,
      "Predecessor": NaN,
      "Role": "Variable Qualifier",
      "Has No Data": "No",
      "Comment": NaN,
      "Developer Notes": NaN
    },
    {
      "Order": 13,
      "Dataset": "QS",
      "Variable": "QSSTAT",
      "Label": "未做状态",
      "Data Type": "text",
      "Length": 8.0,
      "Significant Digits": NaN,
      "Format": NaN,
      "Mandatory": "No",
      "Assigned Value": NaN,
      "Codelist": NaN,
      "Common": NaN,
      "Origin": NaN,
      "Source": NaN,
      "Pages": NaN,
      "Method": NaN,
      "Predecessor": NaN,
      "Role": "Record Qualifier",
      "Has No Data": "No",
      "Comment": NaN,
      "Developer Notes": NaN
    },
    {
      "Order": 14,
      "Dataset": "QS",
      "Variable": "QSREASND",
      "Label": "未做原因",
      "Data Type": "text",
      "Length": 6.0,
      "Significant Digits": NaN,
      "Format": NaN,
      "Mandatory": "No",
      "Assigned Value": NaN,
      "Codelist": NaN,
      "Common": NaN,
      "Origin": NaN,
      "Source": NaN,
      "Pages": NaN,
      "Method": NaN,
      "Predecessor": NaN,
      "Role": "Record Qualifier",
      "Has No Data": "No",
      "Comment": NaN,
      "Developer Notes": NaN
    },
    {
      "Order": 15,
      "Dataset": "QS",
      "Variable": "QSBLFL",
      "Label": "基线标帜",
      "Data Type": "text",
      "Length": 1.0,
      "Significant Digits": NaN,
      "Format": NaN,
      "Mandatory": "No",
      "Assigned Value": NaN,
      "Codelist": NaN,
      "Common": NaN,
      "Origin": NaN,
      "Source": NaN,
      "Pages": NaN,
      "Method": NaN,
      "Predecessor": NaN,
      "Role": "Record Qualifier",
      "Has No Data": "No",
      "Comment": NaN,
      "Developer Notes": NaN
    },
    {
      "Order": 16,
      "Dataset": "QS",
      "Variable": "VISITNUM",
      "Label": "访视编号",
      "Data Type": "integer",
      "Length": 8.0,
      "Significant Digits": NaN,
      "Format": NaN,
      "Mandatory": "No",
      "Assigned Value": NaN,
      "Codelist": NaN,
      "Common": NaN,
      "Origin": NaN,
      "Source": NaN,
      "Pages": NaN,
      "Method": NaN,
      "Predecessor": NaN,
      "Role": "Timing",
      "Has No Data": "No",
      "Comment": NaN,
      "Developer Notes": NaN
    },
    {
      "Order": 17,
      "Dataset": "QS",
      "Variable": "VISIT",
      "Label": "访视名称",
      "Data Type": "text",
      "Length": 28.0,
      "Significant Digits": NaN,
      "Format": NaN,
      "Mandatory": "No",
      "Assigned Value": NaN,
      "Codelist": NaN,
      "Common": NaN,
      "Origin": NaN,
      "Source": NaN,
      "Pages": NaN,
      "Method": NaN,
      "Predecessor": NaN,
      "Role": "Timing",
      "Has No Data": "No",
      "Comment": NaN,
      "Developer Notes": NaN
    },
    {
      "Order": 18,
      "Dataset": "QS",
      "Variable": "EPOCH",
      "Label": "时期",
      "Data Type": "text",
      "Length": 9.0,
      "Significant Digits": NaN,
      "Format": NaN,
      "Mandatory": "No",
      "Assigned Value": NaN,
      "Codelist": NaN,
      "Common": NaN,
      "Origin": NaN,
      "Source": NaN,
      "Pages": NaN,
      "Method": NaN,
      "Predecessor": NaN,
      "Role": "Timing",
      "Has No Data": "No",
      "Comment": NaN,
      "Developer Notes": NaN
    },
    {
      "Order": 19,
      "Dataset": "QS",
      "Variable": "QSDTC",
      "Label": "评估日期/时间",
      "Data Type": "datetime",
      "Length": NaN,
      "Significant Digits": NaN,
      "Format": "$20",
      "Mandatory": "No",
      "Assigned Value": NaN,
      "Codelist": NaN,
      "Common": NaN,
      "Origin": NaN,
      "Source": NaN,
      "Pages": NaN,
      "Method": NaN,
      "Predecessor": NaN,
      "Role": "Timing",
      "Has No Data": "No",
      "Comment": NaN,
      "Developer Notes": NaN
    },
    {
      "Order": 20,
      "Dataset": "QS",
      "Variable": "QSDY",
      "Label": "评估日",
      "Data Type": "integer",
      "Length": 8.0,
      "Significant Digits": NaN,
      "Format": NaN,
      "Mandatory": "No",
      "Assigned Value": NaN,
      "Codelist": NaN,
      "Common": NaN,
      "Origin": NaN,
      "Source": NaN,
      "Pages": NaN,
      "Method": NaN,
      "Predecessor": NaN,
      "Role": "Timing",
      "Has No Data": "No",
      "Comment": NaN,
      "Developer Notes": NaN
    },
    {
      "Order": 1,
      "Dataset": "RS",
      "Variable": "STUDYID",
      "Label": "研究标识符",
      "Data Type": "text",
      "Length": 12.0,
      "Significant Digits": NaN,
      "Format": NaN,
      "Mandatory": "Yes",
      "Assigned Value": NaN,
      "Codelist": NaN,
      "Common": NaN,
      "Origin": NaN,
      "Source": NaN,
      "Pages": NaN,
      "Method": NaN,
      "Predecessor": NaN,
      "Role": "Identifier",
      "Has No Data": "No",
      "Comment": NaN,
      "Developer Notes": NaN
    },
    {
      "Order": 2,
      "Dataset": "RS",
      "Variable": "DOMAIN",
      "Label": "域名缩写",
      "Data Type": "text",
      "Length": 2.0,
      "Significant Digits": NaN,
      "Format": NaN,
      "Mandatory": "Yes",
      "Assigned Value": NaN,
      "Codelist": NaN,
      "Common": NaN,
      "Origin": NaN,
      "Source": NaN,
      "Pages": NaN,
      "Method": NaN,
      "Predecessor": NaN,
      "Role": "Identifier",
      "Has No Data": "No",
      "Comment": NaN,
      "Developer Notes": NaN
    },
    {
      "Order": 3,
      "Dataset": "RS",
      "Variable": "USUBJID",
      "Label": "受试者唯一标识符",
      "Data Type": "text",
      "Length": 12.0,
      "Significant Digits": NaN,
      "Format": NaN,
      "Mandatory": "No",
      "Assigned Value": NaN,
      "Codelist": NaN,
      "Common": NaN,
      "Origin": NaN,
      "Source": NaN,
      "Pages": NaN,
      "Method": NaN,
      "Predecessor": NaN,
      "Role": "Identifier",
      "Has No Data": "No",
      "Comment": NaN,
      "Developer Notes": NaN
    },
    {
      "Order": 4,
      "Dataset": "RS",
      "Variable": "RSSEQ",
      "Label": "序号",
      "Data Type": "integer",
      "Length": 8.0,
      "Significant Digits": NaN,
      "Format": NaN,
      "Mandatory": "Yes",
      "Assigned Value": NaN,
      "Codelist": NaN,
      "Common": NaN,
      "Origin": NaN,
      "Source": NaN,
      "Pages": NaN,
      "Method": NaN,
      "Predecessor": NaN,
      "Role": "Identifier",
      "Has No Data": "No",
      "Comment": NaN,
      "Developer Notes": NaN
    },
    {
      "Order": 5,
      "Dataset": "RS",
      "Variable": "RSTESTCD",
      "Label": "评估项简称",
      "Data Type": "text",
      "Length": 8.0,
      "Significant Digits": NaN,
      "Format": NaN,
      "Mandatory": "Yes",
      "Assigned Value": NaN,
      "Codelist": NaN,
      "Common": NaN,
      "Origin": NaN,
      "Source": NaN,
      "Pages": NaN,
      "Method": NaN,
      "Predecessor": NaN,
      "Role": "Topic",
      "Has No Data": "No",
      "Comment": NaN,
      "Developer Notes": NaN
    },
    {
      "Order": 6,
      "Dataset": "RS",
      "Variable": "RSTEST",
      "Label": "评估项名称",
      "Data Type": "text",
      "Length": 30.0,
      "Significant Digits": NaN,
      "Format": NaN,
      "Mandatory": "Yes",
      "Assigned Value": NaN,
      "Codelist": NaN,
      "Common": NaN,
      "Origin": NaN,
      "Source": NaN,
      "Pages": NaN,
      "Method": NaN,
      "Predecessor": NaN,
      "Role": "Synonym Qualifier",
      "Has No Data": "No",
      "Comment": NaN,
      "Developer Notes": NaN
    },
    {
      "Order": 7,
      "Dataset": "RS",
      "Variable": "RSCAT",
      "Label": "类别",
      "Data Type": "text",
      "Length": 10.0,
      "Significant Digits": NaN,
      "Format": NaN,
      "Mandatory": "No",
      "Assigned Value": NaN,
      "Codelist": NaN,
      "Common": NaN,
      "Origin": NaN,
      "Source": NaN,
      "Pages": NaN,
      "Method": NaN,
      "Predecessor": NaN,
      "Role": "Grouping Qualifier",
      "Has No Data": "No",
      "Comment": NaN,
      "Developer Notes": NaN
    },
    {
      "Order": 8,
      "Dataset": "RS",
      "Variable": "RSORRES",
      "Label": "原始结果",
      "Data Type": "text",
      "Length": 48.0,
      "Significant Digits": NaN,
      "Format": NaN,
      "Mandatory": "No",
      "Assigned Value": NaN,
      "Codelist": NaN,
      "Common": NaN,
      "Origin": NaN,
      "Source": NaN,
      "Pages": NaN,
      "Method": NaN,
      "Predecessor": NaN,
      "Role": "Result Qualifier",
      "Has No Data": "No",
      "Comment": NaN,
      "Developer Notes": NaN
    },
    {
      "Order": 9,
      "Dataset": "RS",
      "Variable": "RSSTRESC",
      "Label": "标准化结果",
      "Data Type": "text",
      "Length": 48.0,
      "Significant Digits": NaN,
      "Format": NaN,
      "Mandatory": "No",
      "Assigned Value": NaN,
      "Codelist": NaN,
      "Common": NaN,
      "Origin": NaN,
      "Source": NaN,
      "Pages": NaN,
      "Method": NaN,
      "Predecessor": NaN,
      "Role": "Record Qualifier",
      "Has No Data": "No",
      "Comment": NaN,
      "Developer Notes": NaN
    },
    {
      "Order": 10,
      "Dataset": "RS",
      "Variable": "RSSTAT",
      "Label": "未做状态",
      "Data Type": "text",
      "Length": 1.0,
      "Significant Digits": NaN,
      "Format": NaN,
      "Mandatory": "No",
      "Assigned Value": NaN,
      "Codelist": NaN,
      "Common": NaN,
      "Origin": NaN,
      "Source": NaN,
      "Pages": NaN,
      "Method": NaN,
      "Predecessor": NaN,
      "Role": "Result Qualifier",
      "Has No Data": "No",
      "Comment": NaN,
      "Developer Notes": NaN
    },
    {
      "Order": 11,
      "Dataset": "RS",
      "Variable": "RSREASND",
      "Label": "未做原因",
      "Data Type": "text",
      "Length": 1.0,
      "Significant Digits": NaN,
      "Format": NaN,
      "Mandatory": "No",
      "Assigned Value": NaN,
      "Codelist": NaN,
      "Common": NaN,
      "Origin": NaN,
      "Source": NaN,
      "Pages": NaN,
      "Method": NaN,
      "Predecessor": NaN,
      "Role": "Record Qualifier",
      "Has No Data": "No",
      "Comment": NaN,
      "Developer Notes": NaN
    },
    {
      "Order": 12,
      "Dataset": "RS",
      "Variable": "RSEVAL",
      "Label": "评估者",
      "Data Type": "text",
      "Length": 9.0,
      "Significant Digits": NaN,
      "Format": NaN,
      "Mandatory": "No",
      "Assigned Value": NaN,
      "Codelist": NaN,
      "Common": NaN,
      "Origin": NaN,
      "Source": NaN,
      "Pages": NaN,
      "Method": NaN,
      "Predecessor": NaN,
      "Role": "Record Qualifier",
      "Has No Data": "No",
      "Comment": NaN,
      "Developer Notes": NaN
    },
    {
      "Order": 13,
      "Dataset": "RS",
      "Variable": "EPOCH",
      "Label": "时期",
      "Data Type": "text",
      "Length": 9.0,
      "Significant Digits": NaN,
      "Format": NaN,
      "Mandatory": "No",
      "Assigned Value": NaN,
      "Codelist": NaN,
      "Common": NaN,
      "Origin": NaN,
      "Source": NaN,
      "Pages": NaN,
      "Method": NaN,
      "Predecessor": NaN,
      "Role": "Timing",
      "Has No Data": "No",
      "Comment": NaN,
      "Developer Notes": NaN
    },
    {
      "Order": 14,
      "Dataset": "RS",
      "Variable": "RSDTC",
      "Label": "检查日期/时间",
      "Data Type": "datetime",
      "Length": NaN,
      "Significant Digits": NaN,
      "Format": "$20",
      "Mandatory": "No",
      "Assigned Value": NaN,
      "Codelist": NaN,
      "Common": NaN,
      "Origin": NaN,
      "Source": NaN,
      "Pages": NaN,
      "Method": NaN,
      "Predecessor": NaN,
      "Role": "Timing",
      "Has No Data": "No",
      "Comment": NaN,
      "Developer Notes": NaN
    },
    {
      "Order": 15,
      "Dataset": "RS",
      "Variable": "RSDY",
      "Label": "检查日",
      "Data Type": "integer",
      "Length": 8.0,
      "Significant Digits": NaN,
      "Format": NaN,
      "Mandatory": "No",
      "Assigned Value": NaN,
      "Codelist": NaN,
      "Common": NaN,
      "Origin": NaN,
      "Source": NaN,
      "Pages": NaN,
      "Method": NaN,
      "Predecessor": NaN,
      "Role": "Timing",
      "Has No Data": "No",
      "Comment": NaN,
      "Developer Notes": NaN
    },
    {
      "Order": 1,
      "Dataset": "SE",
      "Variable": "STUDYID",
      "Label": "研究标识符",
      "Data Type": "text",
      "Length": 12.0,
      "Significant Digits": NaN,
      "Format": NaN,
      "Mandatory": "Yes",
      "Assigned Value": NaN,
      "Codelist": NaN,
      "Common": NaN,
      "Origin": NaN,
      "Source": NaN,
      "Pages": NaN,
      "Method": NaN,
      "Predecessor": NaN,
      "Role": "Identifier",
      "Has No Data": "No",
      "Comment": NaN,
      "Developer Notes": NaN
    },
    {
      "Order": 2,
      "Dataset": "SE",
      "Variable": "DOMAIN",
      "Label": "域名缩写",
      "Data Type": "text",
      "Length": 2.0,
      "Significant Digits": NaN,
      "Format": NaN,
      "Mandatory": "Yes",
      "Assigned Value": NaN,
      "Codelist": NaN,
      "Common": NaN,
      "Origin": NaN,
      "Source": NaN,
      "Pages": NaN,
      "Method": NaN,
      "Predecessor": NaN,
      "Role": "Identifier",
      "Has No Data": "No",
      "Comment": NaN,
      "Developer Notes": NaN
    },
    {
      "Order": 3,
      "Dataset": "SE",
      "Variable": "USUBJID",
      "Label": "受试者唯一标识符",
      "Data Type": "text",
      "Length": 12.0,
      "Significant Digits": NaN,
      "Format": NaN,
      "Mandatory": "Yes",
      "Assigned Value": NaN,
      "Codelist": NaN,
      "Common": NaN,
      "Origin": NaN,
      "Source": NaN,
      "Pages": NaN,
      "Method": NaN,
      "Predecessor": NaN,
      "Role": "Identifier",
      "Has No Data": "No",
      "Comment": NaN,
      "Developer Notes": NaN
    },
    {
      "Order": 4,
      "Dataset": "SE",
      "Variable": "SESEQ",
      "Label": "序号",
      "Data Type": "integer",
      "Length": 8.0,
      "Significant Digits": NaN,
      "Format": NaN,
      "Mandatory": "Yes",
      "Assigned Value": NaN,
      "Codelist": NaN,
      "Common": NaN,
      "Origin": NaN,
      "Source": NaN,
      "Pages": NaN,
      "Method": NaN,
      "Predecessor": NaN,
      "Role": "Identifier",
      "Has No Data": "No",
      "Comment": NaN,
      "Developer Notes": NaN
    },
    {
      "Order": 5,
      "Dataset": "SE",
      "Variable": "ETCD",
      "Label": "元素编码",
      "Data Type": "text",
      "Length": 8.0,
      "Significant Digits": NaN,
      "Format": NaN,
      "Mandatory": "Yes",
      "Assigned Value": NaN,
      "Codelist": NaN,
      "Common": NaN,
      "Origin": NaN,
      "Source": NaN,
      "Pages": NaN,
      "Method": NaN,
      "Predecessor": NaN,
      "Role": "Topic",
      "Has No Data": "No",
      "Comment": NaN,
      "Developer Notes": NaN
    },
    {
      "Order": 6,
      "Dataset": "SE",
      "Variable": "ELEMENT",
      "Label": "元素描述",
      "Data Type": "text",
      "Length": 16.0,
      "Significant Digits": NaN,
      "Format": NaN,
      "Mandatory": "No",
      "Assigned Value": NaN,
      "Codelist": NaN,
      "Common": NaN,
      "Origin": NaN,
      "Source": NaN,
      "Pages": NaN,
      "Method": NaN,
      "Predecessor": NaN,
      "Role": "Synonym Qualifier",
      "Has No Data": "No",
      "Comment": NaN,
      "Developer Notes": NaN
    },
    {
      "Order": 7,
      "Dataset": "SE",
      "Variable": "TAETORD",
      "Label": "组内元素计划顺序",
      "Data Type": "integer",
      "Length": 8.0,
      "Significant Digits": NaN,
      "Format": NaN,
      "Mandatory": "No",
      "Assigned Value": NaN,
      "Codelist": NaN,
      "Common": NaN,
      "Origin": NaN,
      "Source": NaN,
      "Pages": NaN,
      "Method": NaN,
      "Predecessor": NaN,
      "Role": "Timing",
      "Has No Data": "No",
      "Comment": NaN,
      "Developer Notes": NaN
    },
    {
      "Order": 8,
      "Dataset": "SE",
      "Variable": "EPOCH",
      "Label": "时期",
      "Data Type": "text",
      "Length": 9.0,
      "Significant Digits": NaN,
      "Format": NaN,
      "Mandatory": "No",
      "Assigned Value": NaN,
      "Codelist": NaN,
      "Common": NaN,
      "Origin": NaN,
      "Source": NaN,
      "Pages": NaN,
      "Method": NaN,
      "Predecessor": NaN,
      "Role": "Timing",
      "Has No Data": "No",
      "Comment": NaN,
      "Developer Notes": NaN
    },
    {
      "Order": 9,
      "Dataset": "SE",
      "Variable": "SESTDTC",
      "Label": "开始日期/时间",
      "Data Type": "datetime",
      "Length": NaN,
      "Significant Digits": NaN,
      "Format": NaN,
      "Mandatory": "Yes",
      "Assigned Value": NaN,
      "Codelist": NaN,
      "Common": NaN,
      "Origin": NaN,
      "Source": NaN,
      "Pages": NaN,
      "Method": NaN,
      "Predecessor": NaN,
      "Role": "Timing",
      "Has No Data": "No",
      "Comment": NaN,
      "Developer Notes": NaN
    },
    {
      "Order": 10,
      "Dataset": "SE",
      "Variable": "SEENDTC",
      "Label": "结束日期/时间",
      "Data Type": "datetime",
      "Length": NaN,
      "Significant Digits": NaN,
      "Format": NaN,
      "Mandatory": "No",
      "Assigned Value": NaN,
      "Codelist": NaN,
      "Common": NaN,
      "Origin": NaN,
      "Source": NaN,
      "Pages": NaN,
      "Method": NaN,
      "Predecessor": NaN,
      "Role": "Timing",
      "Has No Data": "No",
      "Comment": NaN,
      "Developer Notes": NaN
    },
    {
      "Order": 11,
      "Dataset": "SE",
      "Variable": "SESTDY",
      "Label": "开始日",
      "Data Type": "integer",
      "Length": 8.0,
      "Significant Digits": NaN,
      "Format": NaN,
      "Mandatory": "No",
      "Assigned Value": NaN,
      "Codelist": NaN,
      "Common": NaN,
      "Origin": NaN,
      "Source": NaN,
      "Pages": NaN,
      "Method": NaN,
      "Predecessor": NaN,
      "Role": "Timing",
      "Has No Data": "No",
      "Comment": NaN,
      "Developer Notes": NaN
    },
    {
      "Order": 12,
      "Dataset": "SE",
      "Variable": "SEENDY",
      "Label": "结束日",
      "Data Type": "integer",
      "Length": 8.0,
      "Significant Digits": NaN,
      "Format": NaN,
      "Mandatory": "No",
      "Assigned Value": NaN,
      "Codelist": NaN,
      "Common": NaN,
      "Origin": NaN,
      "Source": NaN,
      "Pages": NaN,
      "Method": NaN,
      "Predecessor": NaN,
      "Role": "Timing",
      "Has No Data": "No",
      "Comment": NaN,
      "Developer Notes": NaN
    },
    {
      "Order": 1,
      "Dataset": "SS",
      "Variable": "STUDYID",
      "Label": "研究标识符",
      "Data Type": "text",
      "Length": 12.0,
      "Significant Digits": NaN,
      "Format": NaN,
      "Mandatory": "Yes",
      "Assigned Value": NaN,
      "Codelist": NaN,
      "Common": NaN,
      "Origin": NaN,
      "Source": NaN,
      "Pages": NaN,
      "Method": NaN,
      "Predecessor": NaN,
      "Role": "Identifier",
      "Has No Data": "No",
      "Comment": NaN,
      "Developer Notes": NaN
    },
    {
      "Order": 2,
      "Dataset": "SS",
      "Variable": "DOMAIN",
      "Label": "域名缩写",
      "Data Type": "text",
      "Length": 2.0,
      "Significant Digits": NaN,
      "Format": NaN,
      "Mandatory": "Yes",
      "Assigned Value": NaN,
      "Codelist": NaN,
      "Common": NaN,
      "Origin": NaN,
      "Source": NaN,
      "Pages": NaN,
      "Method": NaN,
      "Predecessor": NaN,
      "Role": "Identifier",
      "Has No Data": "No",
      "Comment": NaN,
      "Developer Notes": NaN
    },
    {
      "Order": 3,
      "Dataset": "SS",
      "Variable": "USUBJID",
      "Label": "受试者唯一标识符",
      "Data Type": "text",
      "Length": 12.0,
      "Significant Digits": NaN,
      "Format": NaN,
      "Mandatory": "No",
      "Assigned Value": NaN,
      "Codelist": NaN,
      "Common": NaN,
      "Origin": NaN,
      "Source": NaN,
      "Pages": NaN,
      "Method": NaN,
      "Predecessor": NaN,
      "Role": "Identifier",
      "Has No Data": "No",
      "Comment": NaN,
      "Developer Notes": NaN
    },
    {
      "Order": 4,
      "Dataset": "SS",
      "Variable": "SSSEQ",
      "Label": "序号",
      "Data Type": "integer",
      "Length": 8.0,
      "Significant Digits": NaN,
      "Format": NaN,
      "Mandatory": "Yes",
      "Assigned Value": NaN,
      "Codelist": NaN,
      "Common": NaN,
      "Origin": NaN,
      "Source": NaN,
      "Pages": NaN,
      "Method": NaN,
      "Predecessor": NaN,
      "Role": "Identifier",
      "Has No Data": "No",
      "Comment": NaN,
      "Developer Notes": NaN
    },
    {
      "Order": 5,
      "Dataset": "SS",
      "Variable": "SSTESTCD",
      "Label": "状态简称",
      "Data Type": "text",
      "Length": 8.0,
      "Significant Digits": NaN,
      "Format": NaN,
      "Mandatory": "Yes",
      "Assigned Value": NaN,
      "Codelist": NaN,
      "Common": NaN,
      "Origin": NaN,
      "Source": NaN,
      "Pages": NaN,
      "Method": NaN,
      "Predecessor": NaN,
      "Role": "Topic",
      "Has No Data": "No",
      "Comment": NaN,
      "Developer Notes": NaN
    },
    {
      "Order": 6,
      "Dataset": "SS",
      "Variable": "SSTEST",
      "Label": "状态名称",
      "Data Type": "text",
      "Length": 12.0,
      "Significant Digits": NaN,
      "Format": NaN,
      "Mandatory": "Yes",
      "Assigned Value": NaN,
      "Codelist": NaN,
      "Common": NaN,
      "Origin": NaN,
      "Source": NaN,
      "Pages": NaN,
      "Method": NaN,
      "Predecessor": NaN,
      "Role": "Synonym Qualifier",
      "Has No Data": "No",
      "Comment": NaN,
      "Developer Notes": NaN
    },
    {
      "Order": 7,
      "Dataset": "SS",
      "Variable": "SSCAT",
      "Label": "类别",
      "Data Type": "text",
      "Length": 12.0,
      "Significant Digits": NaN,
      "Format": NaN,
      "Mandatory": "No",
      "Assigned Value": NaN,
      "Codelist": NaN,
      "Common": NaN,
      "Origin": NaN,
      "Source": NaN,
      "Pages": NaN,
      "Method": NaN,
      "Predecessor": NaN,
      "Role": "Grouping Qualifier",
      "Has No Data": "No",
      "Comment": NaN,
      "Developer Notes": NaN
    },
    {
      "Order": 8,
      "Dataset": "SS",
      "Variable": "SSORRES",
      "Label": "原始结果",
      "Data Type": "text",
      "Length": 6.0,
      "Significant Digits": NaN,
      "Format": "$40",
