{
  "datasets": [
    {
      "Dataset": "AE",
      "Seq": 8,
      "Description": "不良事件",
      "Unnamed: 3": "AE-不良事件",
      "Class": "事件类",
      "Derivation/Comment": NaN,
      "Structure": "每个受试者每例次不良事件一条记录",
      "Purpose": "列表",
      "Keys": "STUDYID, USUBJID, AEDECOD, AESTDTC"
    },
    {
      "Dataset": "CM",
      "Seq": 4,
      "Description": "既往与合并用药",
      "Unnamed: 3": "CM-既往与合并用药",
      "Class": "干预类",
      "Derivation/Comment": NaN,
      "Structure": "每个受试者每次给药或每个用法一条记录",
      "Purpose": "列表",
      "Keys": "STUDYID, USUBJID, CMTRT, CMCAT, CMSTDTC, CMENDTC, CMDOSFRQ, CMDOSTOT, CMROUTE"
    },
    {
      "Dataset": "DM",
      "Seq": 1,
      "Description": "人口学",
      "Unnamed: 3": "DM-人口学",
      "Class": "特殊用途",
      "Derivation/Comment": NaN,
      "Structure": "每个受试者一条记录",
      "Purpose": "列表",
      "Keys": "STUDYID, USUBJID, ETCD, SESTDTC"
    },
    {
      "Dataset": "DS",
      "Seq": 9,
      "Description": "处置",
      "Unnamed: 3": "DS-处置",
      "Class": "事件类",
      "Derivation/Comment": NaN,
      "Structure": "每个受试者每个完成状态或每个方案里程碑事件一条记录",
      "Purpose": "列表",
      "Keys": "STUDYID, USUBJID, DSDECOD, DSSTDTC"
    },
    {
      "Dataset": "DV",
      "Seq": 10,
      "Description": "方案偏离",
      "Unnamed: 3": "DV-方案偏离",
      "Class": "事件类",
      "Derivation/Comment": NaN,
      "Structure": "每个受试者每例次方案偏离一条记录",
      "Purpose": "列表",
      "Keys": "STUDYID, USUBJID, DVTERM, DVSTDTC"
    },
    {
      "Dataset": "EC",
      "Seq": 5,
      "Description": "暴露采集",
      "Unnamed: 3": "EC-暴露采集",
      "Class": "干预类",
      "Derivation/Comment": NaN,
      "Structure": "每个受试者每个方案规定的研究用药每个采集的用法每个情景模式一条记录",
      "Purpose": "列表",
      "Keys": "STUDYID, USUBJID, ECTRT, ECSTDTC"
    },
    {
      "Dataset": "EG",
      "Seq": 12,
      "Description": "心电图",
      "Unnamed: 3": "EG-心电图",
      "Class": "发现类",
      "Derivation/Comment": NaN,
      "Structure": "每个受试者每个访视每个时间点每次心电每个发现一条记录",
      "Purpose": "列表",
      "Keys": "STUDYID, USUBJID, EGTESTCD, VISITNUM, EGDTC"
    },
    {
      "Dataset": "EX",
      "Seq": 6,
      "Description": "暴露",
      "Unnamed: 3": "EX-暴露",
      "Class": "干预类",
      "Derivation/Comment": NaN,
      "Structure": "每个受试者每个研究药物每个用法一条记录",
      "Purpose": "列表",
      "Keys": "STUDYID, USUBJID, EXTRT, EXSTDTC"
    },
    {
      "Dataset": "IE",
      "Seq": 13,
      "Description": "不满足的入选/排除标准",
      "Unnamed: 3": "IE-不满足的入选/排除标准",
      "Class": "发现类",
      "Derivation/Comment": NaN,
      "Structure": "每个受试者每条不符合的入选/排除标准条记录",
      "Purpose": "列表",
      "Keys": "STUDYID, USUBJID, IETESTCD"
    },
    {
      "Dataset": "LB",
      "Seq": 14,
      "Description": "实验室检查",
      "Unnamed: 3": "LB-实验室检查",
      "Class": "发现类",
      "Derivation/Comment": NaN,
      "Structure": "每个受试者每个访视每个时间点每个实验室检查一条记录",
      "Purpose": "列表",
      "Keys": "STUDYID, USUBJID, LBTESTCD, LBSPEC, VISITNUM, LBTPTREF, LBTPTNUM, LBDTC"
    },
    {
      "Dataset": "MH",
      "Seq": 11,
      "Description": "病史",
      "Unnamed: 3": "MH-病史",
      "Class": "事件类",
      "Derivation/Comment": NaN,
      "Structure": "每个受试者每个病史一条记录",
      "Purpose": "列表",
      "Keys": "STUDYID, USUBJID, MHCAT, MHDECOD, MHSTDTC"
    },
    {
      "Dataset": "PC",
      "Seq": 15,
      "Description": "药代动力学浓度",
      "Unnamed: 3": "PC-药代动力学浓度",
      "Class": "发现类",
      "Derivation/Comment": NaN,
      "Structure": "每个受试者每个分析物每个访视每个时间点每个浓度或每个样本特征一条记录",
      "Purpose": "列表",
      "Keys": "STUDYID, USUBJID, PCTESTCD, VISITNUM, PCTPTREF, PCTPTNUM"
    },
    {
      "Dataset": "PE",
      "Seq": 16,
      "Description": "体格检查",
      "Unnamed: 3": "PE-体格检查",
      "Class": "发现类",
      "Derivation/Comment": NaN,
      "Structure": "每个受试者每个访视每个身体系统检查或异常情况一条记录",
      "Purpose": "列表",
      "Keys": "STUDYID, USUBJID, PETESTCD, VISITNUM"
    },
    {
      "Dataset": "PP",
      "Seq": 17,
      "Description": "药代动力学参数",
      "Unnamed: 3": "PP-药代动力学参数",
      "Class": "发现类",
      "Derivation/Comment": NaN,
      "Structure": "每个受试者每组时间浓度或每个建模方法每个PK参数一条记录",
      "Purpose": "列表",
      "Keys": "STUDYID, USUBJID, PPTESTCD, PPCAT, VISITNUM, PPTPTREF"
    },
    {
      "Dataset": "PR",
      "Seq": 7,
      "Description": "诊疗操作",
      "Unnamed: 3": "PR-诊疗操作",
      "Class": "干预类",
      "Derivation/Comment": NaN,
      "Structure": "每个受试者每次诊疗操作一条记录",
      "Purpose": "列表",
      "Keys": "STUDYID, USUBJID, PRTRT, PRSTDTC"
    },
    {
      "Dataset": "QS",
      "Seq": 18,
      "Description": "问卷与量表",
      "Unnamed: 3": "QS-问卷与量表",
      "Class": "发现类",
      "Derivation/Comment": NaN,
      "Structure": "每个受试者每个访视每个时间点每个问卷或量表每项问题一条记录",
      "Purpose": "列表",
      "Keys": "STUDYID, USUBJID, QSCAT, QSTESTCD, VISITNUM, QSTPTREF, QSTPTNUM"
    },
    {
      "Dataset": "RELREC",
      "Seq": 29,
      "Description": "关联数据集",
      "Unnamed: 3": "RELREC-关联数据集",
      "Class": "关系数据",
      "Derivation/Comment": NaN,
      "Structure": "一种关联一种记录",
      "Purpose": "列表",
      "Keys": "STUDYID, RDOMAIN, USUBJID, IDVAR, IDVARVAL, RELID"
    },
    {
      "Dataset": "RS",
      "Seq": 19,
      "Description": "疾病效应/状态评估",
      "Unnamed: 3": "RS-疾病效应/状态评估",
      "Class": "发现类",
      "Derivation/Comment": NaN,
      "Structure": "每个受试者每个访视每个时间点每个评估者每个评估一条记录",
      "Purpose": "列表",
      "Keys": "STUDYID, USUBJID, RSCAT, RSTESTCD, RSDTC"
    },
    {
      "Dataset": "SE",
      "Seq": 2,
      "Description": "受试者元素",
      "Unnamed: 3": "SE-受试者元素",
      "Class": "特殊用途",
      "Derivation/Comment": NaN,
      "Structure": "每个受试者每个实际元素一条记录",
      "Purpose": "列表",
      "Keys": "STUDYID, USUBJID, ELEMENT, EPOCH, SESTDTC"
    },
    {
      "Dataset": "SS",
      "Seq": 20,
      "Description": "受试者状态",
      "Unnamed: 3": "SS-受试者状态",
      "Class": "发现类",
      "Derivation/Comment": NaN,
      "Structure": "每个受试者每个访视每个状态一条记录",
      "Purpose": "列表",
      "Keys": "STUDYID, USUBJID, SSDTC"
    },
    {
      "Dataset": "SUPP--",
      "Seq": 30,
      "Description": "补充修饰语数据集",
      "Unnamed: 3": "SUPP---补充修饰语数据集",
      "Class": "关系数据",
      "Derivation/Comment": NaN,
      "Structure": "一个域一个修饰变量一条记录",
      "Purpose": "列表",
      "Keys": "STUDYID, RDOMAIN, USUBJID, IDVAR, IDVARVAL, QNAM"
    },
    {
      "Dataset": "SV",
      "Seq": 3,
      "Description": "受试者访视",
      "Unnamed: 3": "SV-受试者访视",
      "Class": "特殊用途",
      "Derivation/Comment": NaN,
      "Structure": "每个受试者每个实际访视一条记录",
      "Purpose": "列表",
      "Keys": "STUDYID, USUBJID, VISITNUM"
    },
    {
      "Dataset": "TA",
      "Seq": 24,
      "Description": "试验分组",
      "Unnamed: 3": "TA-试验分组",
      "Class": "试验设计",
      "Derivation/Comment": NaN,
      "Structure": "每个试验组每个计划元素一条记录",
      "Purpose": "列表",
      "Keys": "STUDYID, ARMCD,TAETORD"
    },
    {
      "Dataset": "TE",
      "Seq": 25,
      "Description": "试验元素",
      "Unnamed: 3": "TE-试验元素",
      "Class": "试验设计",
      "Derivation/Comment": NaN,
      "Structure": "每个计划元素一条记录",
      "Purpose": "列表",
      "Keys": "STUDYID, ETCD"
    },
    {
      "Dataset": "TI",
      "Seq": 26,
      "Description": "试验入选/排除标准",
      "Unnamed: 3": "TI-试验入选/排除标准",
      "Class": "试验设计",
      "Derivation/Comment": NaN,
      "Structure": "每条入选/排除标准一条记录",
      "Purpose": "列表",
      "Keys": "STUDYID, TIVERS, IETESTCD"
    },
    {
      "Dataset": "TR",
      "Seq": 21,
      "Description": "肿瘤/病灶测量",
      "Unnamed: 3": "TR-肿瘤/病灶测量",
      "Class": "发现类",
      "Derivation/Comment": NaN,
      "Structure": "每个受试者每个访视每个评估者每个评估项一条记录",
      "Purpose": "列表",
      "Keys": "STUDYID, USUBJID, TRLNKID, TRGRPID, TRTESTCD, TRDTC"
    },
    {
      "Dataset": "TS",
      "Seq": 27,
      "Description": "试验概要",
      "Unnamed: 3": "TS-试验概要",
      "Class": "试验设计",
      "Derivation/Comment": NaN,
      "Structure": "每个实验概要参数值一条记录",
      "Purpose": "列表",
      "Keys": "STUDYID, TSPARMCD, TSSEQ"
    },
    {
      "Dataset": "TU",
      "Seq": 22,
      "Description": "肿瘤/病灶标识",
      "Unnamed: 3": "TU-肿瘤/病灶标识",
      "Class": "发现类",
      "Derivation/Comment": NaN,
      "Structure": "每个受试者每个标识的肿瘤每个评估者一条记录",
      "Purpose": "列表",
      "Keys": "STUDYID, USUBJID, TUTESTCD, TUORRES, TULNKID, TULOC, TUDTC"
    },
    {
      "Dataset": "TV",
      "Seq": 28,
      "Description": "试验访视",
      "Unnamed: 3": "TV-试验访视",
      "Class": "试验设计",
      "Derivation/Comment": NaN,
      "Structure": "每个分组每个计划访视一条记录",
      "Purpose": "列表",
      "Keys": "STUDYID, VISITNUM, ARMCD"
    },
    {
      "Dataset": "VS",
      "Seq": 23,
      "Description": "生命体征",
      "Unnamed: 3": "VS-生命体征",
      "Class": "发现类",
      "Derivation/Comment": NaN,
      "Structure": "每个受试者每个访视每个时间点每个生命体征测量一条记录",
      "Purpose": "列表",
      "Keys": "STUDYID, USUBJID, VSTESTCD, VISITNUM"
    }
  ],
  "codelists": [
    {
      "CT/CodelistID": "ACN",
      "CT/Codelist Name": "对研究治疗采取的措施",
      "Data Type": "Char",
      "cdnum": 1,
      "Term Decoded": "不适用",
      "Term  Dictionaries": NaN,
      "Version": NaN,
      "flag": NaN
    },
    {
      "CT/CodelistID": "ACN",
      "CT/Codelist Name": "对研究治疗采取的措施",
      "Data Type": "Char",
      "cdnum": 2,
      "Term Decoded": "剂量未变（继续用药）",
      "Term  Dictionaries": NaN,
      "Version": NaN,
      "flag": NaN
    },
    {
      "CT/CodelistID": "ACN",
      "CT/Codelist Name": "对研究治疗采取的措施",
      "Data Type": "Char",
      "cdnum": 3,
      "Term Decoded": "输液中断(暂停用药）",
      "Term  Dictionaries": NaN,
      "Version": NaN,
      "flag": NaN
    },
    {
      "CT/CodelistID": "ACN",
      "CT/Codelist Name": "对研究治疗采取的措施",
      "Data Type": "Char",
      "cdnum": 4,
      "Term Decoded": "延迟用药",
      "Term  Dictionaries": NaN,
      "Version": NaN,
      "flag": NaN
    },
    {
      "CT/CodelistID": "ACN",
      "CT/Codelist Name": "对研究治疗采取的措施",
      "Data Type": "Char",
      "cdnum": 5,
      "Term Decoded": "永久停药",
      "Term  Dictionaries": NaN,
      "Version": NaN,
      "flag": NaN
    },
    {
      "CT/CodelistID": "ACTARM",
      "CT/Codelist Name": "实际分组描述",
      "Data Type": "Char",
      "cdnum": 1,
      "Term Decoded": "筛选失败",
      "Term  Dictionaries": NaN,
      "Version": NaN,
      "flag": "Y"
    },
    {
      "CT/CodelistID": "ACTARM",
      "CT/Codelist Name": "实际分组描述",
      "Data Type": "Char",
      "cdnum": 2,
      "Term Decoded": "MR001(0.1mg/kg)",
      "Term  Dictionaries": NaN,
      "Version": NaN,
      "flag": "Y"
    },
    {
      "CT/CodelistID": "ACTARM",
      "CT/Codelist Name": "实际分组描述",
      "Data Type": "Char",
      "cdnum": 3,
      "Term Decoded": "MR001(0.5mg/kg)",
      "Term  Dictionaries": NaN,
      "Version": NaN,
      "flag": "Y"
    },
    {
      "CT/CodelistID": "ACTARM",
      "CT/Codelist Name": "实际分组描述",
      "Data Type": "Char",
      "cdnum": 4,
      "Term Decoded": "MR001(2mg/kg)",
      "Term  Dictionaries": NaN,
      "Version": NaN,
      "flag": "Y"
    },
    {
      "CT/CodelistID": "ACTARM",
      "CT/Codelist Name": "实际分组描述",
      "Data Type": "Char",
      "cdnum": 5,
      "Term Decoded": "MR001(6mg/kg)",
      "Term  Dictionaries": NaN,
      "Version": NaN,
      "flag": "Y"
    },
    {
      "CT/CodelistID": "ACTARM",
      "CT/Codelist Name": "实际分组描述",
      "Data Type": "Char",
      "cdnum": 6,
      "Term Decoded": "MR001(10mg/kg)",
      "Term  Dictionaries": NaN,
      "Version": NaN,
      "flag": "Y"
    },
    {
      "CT/CodelistID": "ACTARMCD",
      "CT/Codelist Name": "实际分组编码",
      "Data Type": "Char",
      "cdnum": 1,
      "Term Decoded": "SCRNFAIL",
      "Term  Dictionaries": "筛选失败",
      "Version": NaN,
      "flag": "Y"
    },
    {
      "CT/CodelistID": "ACTARMCD",
      "CT/Codelist Name": "实际分组编码",
      "Data Type": "Char",
      "cdnum": 2,
      "Term Decoded": "MR001_.1",
      "Term  Dictionaries": "MR001(0.1mg/kg)",
      "Version": NaN,
      "flag": "Y"
    },
    {
      "CT/CodelistID": "ACTARMCD",
      "CT/Codelist Name": "实际分组编码",
      "Data Type": "Char",
      "cdnum": 3,
      "Term Decoded": "MR001_.5",
      "Term  Dictionaries": "MR001(0.5mg/kg)",
      "Version": NaN,
      "flag": "Y"
    },
    {
      "CT/CodelistID": "ACTARMCD",
      "CT/Codelist Name": "实际分组编码",
      "Data Type": "Char",
      "cdnum": 4,
      "Term Decoded": "MR001_2",
      "Term  Dictionaries": "MR001(2mg/kg)",
      "Version": NaN,
      "flag": "Y"
    },
    {
      "CT/CodelistID": "ACTARMCD",
      "CT/Codelist Name": "实际分组编码",
      "Data Type": "Char",
      "cdnum": 5,
      "Term Decoded": "MR001_6",
      "Term  Dictionaries": "MR001(6mg/kg)",
      "Version": NaN,
      "flag": "Y"
    },
    {
      "CT/CodelistID": "ACTARMCD",
      "CT/Codelist Name": "实际分组编码",
      "Data Type": "Char",
      "cdnum": 6,
      "Term Decoded": "MR001_10",
      "Term  Dictionaries": "MR001(10mg/kg)",
      "Version": NaN,
      "flag": "Y"
    },
    {
      "CT/CodelistID": "AGEU",
      "CT/Codelist Name": "年龄单位",
      "Data Type": "Char",
      "cdnum": 1,
      "Term Decoded": "周岁",
      "Term  Dictionaries": NaN,
      "Version": NaN,
      "flag": NaN
    },
    {
      "CT/CodelistID": "ARM",
      "CT/Codelist Name": "计划分组描述",
      "Data Type": "Char",
      "cdnum": 1,
      "Term Decoded": "筛选失败",
      "Term  Dictionaries": NaN,
      "Version": NaN,
      "flag": "Y"
    },
    {
      "CT/CodelistID": "ARM",
      "CT/Codelist Name": "计划分组描述",
      "Data Type": "Char",
      "cdnum": 2,
      "Term Decoded": "MR001(0.1mg/kg)",
      "Term  Dictionaries": NaN,
      "Version": NaN,
      "flag": "Y"
    },
    {
      "CT/CodelistID": "ARM",
      "CT/Codelist Name": "计划分组描述",
      "Data Type": "Char",
      "cdnum": 3,
      "Term Decoded": "MR001(0.5mg/kg)",
      "Term  Dictionaries": NaN,
      "Version": NaN,
      "flag": "Y"
    },
    {
      "CT/CodelistID": "ARM",
      "CT/Codelist Name": "计划分组描述",
      "Data Type": "Char",
      "cdnum": 4,
      "Term Decoded": "MR001(2mg/kg)",
      "Term  Dictionaries": NaN,
      "Version": NaN,
      "flag": "Y"
    },
    {
      "CT/CodelistID": "ARM",
      "CT/Codelist Name": "计划分组描述",
      "Data Type": "Char",
      "cdnum": 5,
      "Term Decoded": "MR001(6mg/kg)",
      "Term  Dictionaries": NaN,
      "Version": NaN,
      "flag": "Y"
    },
    {
      "CT/CodelistID": "ARM",
      "CT/Codelist Name": "计划分组描述",
      "Data Type": "Char",
      "cdnum": 6,
      "Term Decoded": "MR001(10mg/kg)",
      "Term  Dictionaries": NaN,
      "Version": NaN,
      "flag": "Y"
    },
    {
      "CT/CodelistID": "ARMCD",
      "CT/Codelist Name": "计划分组编码",
      "Data Type": "Char",
      "cdnum": 1,
      "Term Decoded": "SCRNFAIL",
      "Term  Dictionaries": "筛选失败",
      "Version": NaN,
      "flag": "Y"
    },
    {
      "CT/CodelistID": "ARMCD",
      "CT/Codelist Name": "计划分组编码",
      "Data Type": "Char",
      "cdnum": 2,
      "Term Decoded": "MR001_.1",
      "Term  Dictionaries": "MR001(0.1mg/kg)",
      "Version": NaN,
      "flag": "Y"
    },
    {
      "CT/CodelistID": "ARMCD",
      "CT/Codelist Name": "计划分组编码",
      "Data Type": "Char",
      "cdnum": 3,
      "Term Decoded": "MR001_.5",
      "Term  Dictionaries": "MR001(0.5mg/kg)",
      "Version": NaN,
      "flag": "Y"
    },
    {
      "CT/CodelistID": "ARMCD",
      "CT/Codelist Name": "计划分组编码",
      "Data Type": "Char",
      "cdnum": 4,
      "Term Decoded": "MR001_2",
      "Term  Dictionaries": "MR001(2mg/kg)",
      "Version": NaN,
      "flag": "Y"
    },
    {
      "CT/CodelistID": "ARMCD",
      "CT/Codelist Name": "计划分组编码",
      "Data Type": "Char",
      "cdnum": 5,
      "Term Decoded": "MR001_6",
      "Term  Dictionaries": "MR001(6mg/kg)",
      "Version": NaN,
      "flag": "Y"
    },
    {
      "CT/CodelistID": "ARMCD",
      "CT/Codelist Name": "计划分组编码",
      "Data Type": "Char",
      "cdnum": 6,
      "Term Decoded": "MR001_10",
      "Term  Dictionaries": "MR001(10mg/kg)",
      "Version": NaN,
      "flag": "Y"
    },
    {
      "CT/CodelistID": "CLSIG",
      "CT/Codelist Name": "临床意义",
      "Data Type": "Char",
      "cdnum": 1,
      "Term Decoded": "未查",
      "Term  Dictionaries": NaN,
      "Version": NaN,
      "flag": NaN
    },
    {
      "CT/CodelistID": "CLSIG",
      "CT/Codelist Name": "临床意义",
      "Data Type": "Char",
      "cdnum": 2,
      "Term Decoded": "异常无临床意义",
      "Term  Dictionaries": NaN,
      "Version": NaN,
      "flag": NaN
    },
    {
      "CT/CodelistID": "CLSIG",
      "CT/Codelist Name": "临床意义",
      "Data Type": "Char",
      "cdnum": 3,
      "Term Decoded": "异常有临床意义",
      "Term  Dictionaries": NaN,
      "Version": NaN,
      "flag": NaN
    },
    {
      "CT/CodelistID": "CLSIG",
      "CT/Codelist Name": "临床意义",
      "Data Type": "Char",
      "cdnum": 4,
      "Term Decoded": "正常",
      "Term  Dictionaries": NaN,
      "Version": NaN,
      "flag": NaN
    },
    {
      "CT/CodelistID": "CMCAT",
      "CT/Codelist Name": "类别",
      "Data Type": "Char",
      "cdnum": 1,
      "Term Decoded": "合并用药/新的抗肿瘤用药",
      "Term  Dictionaries": NaN,
      "Version": NaN,
      "flag": NaN
    },
    {
      "CT/CodelistID": "CMCAT",
      "CT/Codelist Name": "类别",
      "Data Type": "Char",
      "cdnum": 2,
      "Term Decoded": "既往其他肿瘤治疗史",
      "Term  Dictionaries": NaN,
      "Version": NaN,
      "flag": NaN
    },
    {
      "CT/CodelistID": "CMCAT",
      "CT/Codelist Name": "类别",
      "Data Type": "Char",
      "cdnum": 3,
      "Term Decoded": "既往肿瘤放疗史",
      "Term  Dictionaries": NaN,
      "Version": NaN,
      "flag": NaN
    },
    {
      "CT/CodelistID": "CMCAT",
      "CT/Codelist Name": "类别",
      "Data Type": "Char",
      "cdnum": 4,
      "Term Decoded": "既往肿瘤化疗史",
      "Term  Dictionaries": NaN,
      "Version": NaN,
      "flag": NaN
    },
    {
      "CT/CodelistID": "CMCAT",
      "CT/Codelist Name": "类别",
      "Data Type": "Char",
      "cdnum": 5,
      "Term Decoded": "用药史",
      "Term  Dictionaries": NaN,
      "Version": NaN,
      "flag": NaN
    },
    {
      "CT/CodelistID": "DOMAIN",
      "CT/Codelist Name": "域名缩写",
      "Data Type": "Char",
      "cdnum": 1,
      "Term Decoded": "AE",
      "Term  Dictionaries": NaN,
      "Version": NaN,
      "flag": NaN
    },
    {
      "CT/CodelistID": "DOMAIN",
      "CT/Codelist Name": "域名缩写",
      "Data Type": "Char",
      "cdnum": 2,
      "Term Decoded": "CM",
      "Term  Dictionaries": NaN,
      "Version": NaN,
      "flag": NaN
    },
    {
      "CT/CodelistID": "DOMAIN",
      "CT/Codelist Name": "域名缩写",
      "Data Type": "Char",
      "cdnum": 3,
      "Term Decoded": "DM",
      "Term  Dictionaries": NaN,
      "Version": NaN,
      "flag": NaN
    },
    {
      "CT/CodelistID": "DOMAIN",
      "CT/Codelist Name": "域名缩写",
      "Data Type": "Char",
      "cdnum": 4,
      "Term Decoded": "DS",
      "Term  Dictionaries": NaN,
      "Version": NaN,
      "flag": NaN
    },
    {
      "CT/CodelistID": "DOMAIN",
      "CT/Codelist Name": "域名缩写",
      "Data Type": "Char",
      "cdnum": 5,
      "Term Decoded": "DV",
      "Term  Dictionaries": NaN,
      "Version": NaN,
      "flag": NaN
    },
    {
      "CT/CodelistID": "DOMAIN",
      "CT/Codelist Name": "域名缩写",
      "Data Type": "Char",
      "cdnum": 6,
      "Term Decoded": "EC",
      "Term  Dictionaries": NaN,
      "Version": NaN,
      "flag": NaN
    },
    {
      "CT/CodelistID": "DOMAIN",
      "CT/Codelist Name": "域名缩写",
      "Data Type": "Char",
      "cdnum": 7,
      "Term Decoded": "EG",
      "Term  Dictionaries": NaN,
      "Version": NaN,
      "flag": NaN
    },
    {
      "CT/CodelistID": "DOMAIN",
      "CT/Codelist Name": "域名缩写",
      "Data Type": "Char",
      "cdnum": 8,
      "Term Decoded": "EX",
      "Term  Dictionaries": NaN,
      "Version": NaN,
      "flag": NaN
    },
    {
      "CT/CodelistID": "DOMAIN",
      "CT/Codelist Name": "域名缩写",
      "Data Type": "Char",
      "cdnum": 9,
      "Term Decoded": "IE",
      "Term  Dictionaries": NaN,
      "Version": NaN,
      "flag": NaN
    },
    {
      "CT/CodelistID": "DOMAIN",
      "CT/Codelist Name": "域名缩写",
      "Data Type": "Char",
      "cdnum": 10,
      "Term Decoded": "IS",
      "Term  Dictionaries": NaN,
      "Version": NaN,
      "flag": NaN
    },
    {
      "CT/CodelistID": "DOMAIN",
      "CT/Codelist Name": "域名缩写",
      "Data Type": "Char",
      "cdnum": 11,
      "Term Decoded": "LB",
      "Term  Dictionaries": NaN,
      "Version": NaN,
      "flag": NaN
    },
    {
      "CT/CodelistID": "DOMAIN",
      "CT/Codelist Name": "域名缩写",
      "Data Type": "Char",
      "cdnum": 12,
      "Term Decoded": "MH",
      "Term  Dictionaries": NaN,
      "Version": NaN,
      "flag": NaN
    },
    {
      "CT/CodelistID": "DOMAIN",
      "CT/Codelist Name": "域名缩写",
      "Data Type": "Char",
      "cdnum": 13,
      "Term Decoded": "PC",
      "Term  Dictionaries": NaN,
      "Version": NaN,
      "flag": NaN
    },
    {
      "CT/CodelistID": "DOMAIN",
      "CT/Codelist Name": "域名缩写",
      "Data Type": "Char",
      "cdnum": 14,
      "Term Decoded": "PE",
      "Term  Dictionaries": NaN,
      "Version": NaN,
      "flag": NaN
    },
    {
      "CT/CodelistID": "DOMAIN",
      "CT/Codelist Name": "域名缩写",
      "Data Type": "Char",
      "cdnum": 15,
      "Term Decoded": "PP",
      "Term  Dictionaries": NaN,
      "Version": NaN,
      "flag": NaN
    },
    {
      "CT/CodelistID": "DOMAIN",
      "CT/Codelist Name": "域名缩写",
      "Data Type": "Char",
      "cdnum": 16,
      "Term Decoded": "PR",
      "Term  Dictionaries": NaN,
      "Version": NaN,
      "flag": NaN
    },
    {
      "CT/CodelistID": "DOMAIN",
      "CT/Codelist Name": "域名缩写",
      "Data Type": "Char",
      "cdnum": 17,
      "Term Decoded": "QS",
      "Term  Dictionaries": NaN,
      "Version": NaN,
      "flag": NaN
    },
    {
      "CT/CodelistID": "DOMAIN",
      "CT/Codelist Name": "域名缩写",
      "Data Type": "Char",
      "cdnum": 18,
      "Term Decoded": "RS",
      "Term  Dictionaries": NaN,
      "Version": NaN,
      "flag": NaN
    },
    {
      "CT/CodelistID": "DOMAIN",
      "CT/Codelist Name": "域名缩写",
      "Data Type": "Char",
      "cdnum": 19,
      "Term Decoded": "SE",
      "Term  Dictionaries": NaN,
      "Version": NaN,
      "flag": NaN
    },
    {
      "CT/CodelistID": "DOMAIN",
      "CT/Codelist Name": "域名缩写",
      "Data Type": "Char",
      "cdnum": 20,
      "Term Decoded": "SS",
      "Term  Dictionaries": NaN,
      "Version": NaN,
      "flag": NaN
    },
    {
      "CT/CodelistID": "DOMAIN",
      "CT/Codelist Name": "域名缩写",
      "Data Type": "Char",
      "cdnum": 21,
      "Term Decoded": "SV",
      "Term  Dictionaries": NaN,
      "Version": NaN,
      "flag": NaN
    },
    {
      "CT/CodelistID": "DOMAIN",
      "CT/Codelist Name": "域名缩写",
      "Data Type": "Char",
      "cdnum": 22,
      "Term Decoded": "TA",
      "Term  Dictionaries": NaN,
      "Version": NaN,
      "flag": NaN
    },
    {
      "CT/CodelistID": "DOMAIN",
      "CT/Codelist Name": "域名缩写",
      "Data Type": "Char",
      "cdnum": 23,
      "Term Decoded": "TE",
      "Term  Dictionaries": NaN,
      "Version": NaN,
      "flag": NaN
    },
    {
      "CT/CodelistID": "DOMAIN",
      "CT/Codelist Name": "域名缩写",
      "Data Type": "Char",
      "cdnum": 24,
      "Term Decoded": "TI",
      "Term  Dictionaries": NaN,
      "Version": NaN,
      "flag": NaN
    },
    {
      "CT/CodelistID": "DOMAIN",
      "CT/Codelist Name": "域名缩写",
      "Data Type": "Char",
      "cdnum": 25,
      "Term Decoded": "TR",
      "Term  Dictionaries": NaN,
      "Version": NaN,
      "flag": NaN
    },
    {
      "CT/CodelistID": "DOMAIN",
      "CT/Codelist Name": "域名缩写",
      "Data Type": "Char",
      "cdnum": 26,
      "Term Decoded": "TS",
      "Term  Dictionaries": NaN,
      "Version": NaN,
      "flag": NaN
    },
    {
      "CT/CodelistID": "DOMAIN",
      "CT/Codelist Name": "域名缩写",
      "Data Type": "Char",
      "cdnum": 27,
      "Term Decoded": "TU",
      "Term  Dictionaries": NaN,
      "Version": NaN,
      "flag": NaN
    },
    {
      "CT/CodelistID": "DOMAIN",
      "CT/Codelist Name": "域名缩写",
      "Data Type": "Char",
      "cdnum": 28,
      "Term Decoded": "TV",
      "Term  Dictionaries": NaN,
      "Version": NaN,
      "flag": NaN
    },
    {
      "CT/CodelistID": "DOMAIN",
      "CT/Codelist Name": "域名缩写",
      "Data Type": "Char",
      "cdnum": 29,
      "Term Decoded": "VS",
      "Term  Dictionaries": NaN,
      "Version": NaN,
      "flag": NaN
    },
    {
      "CT/CodelistID": "DSCAT",
      "CT/Codelist Name": "类别",
      "Data Type": "Char",
      "cdnum": 1,
      "Term Decoded": "DISPOSITION EVENT",
      "Term  Dictionaries": NaN,
      "Version": NaN,
      "flag": NaN
    },
    {
      "CT/CodelistID": "DSCAT",
      "CT/Codelist Name": "类别",
      "Data Type": "Char",
      "cdnum": 2,
      "Term Decoded": "PROTOCOL MILESTONE",
      "Term  Dictionaries": NaN,
      "Version": NaN,
      "flag": NaN
    },
    {
      "CT/CodelistID": "DSDECOD",
      "CT/Codelist Name": "标准化名称",
      "Data Type": "Char",
      "cdnum": 1,
      "Term Decoded": "获得知情同意",
      "Term  Dictionaries": NaN,
      "Version": NaN,
      "flag": NaN
    },
    {
      "CT/CodelistID": "DSDECOD",
      "CT/Codelist Name": "标准化名称",
      "Data Type": "Char",
      "cdnum": 2,
      "Term Decoded": "筛选入组成功",
      "Term  Dictionaries": NaN,
      "Version": NaN,
      "flag": NaN
    },
    {
      "CT/CodelistID": "DSDECOD",
      "CT/Codelist Name": "标准化名称",
      "Data Type": "Char",
      "cdnum": 3,
      "Term Decoded": "筛选入组失败",
      "Term  Dictionaries": NaN,
      "Version": NaN,
      "flag": NaN
    },
    {
      "CT/CodelistID": "DSDECOD",
      "CT/Codelist Name": "标准化名称",
      "Data Type": "Char",
      "cdnum": 4,
      "Term Decoded": "死亡",
      "Term  Dictionaries": NaN,
      "Version": NaN,
      "flag": NaN
    },
    {
      "CT/CodelistID": "DSDECOD",
      "CT/Codelist Name": "标准化名称",
      "Data Type": "Char",
      "cdnum": 5,
      "Term Decoded": "提前退出试验",
      "Term  Dictionaries": NaN,
      "Version": NaN,
      "flag": NaN
    },
    {
      "CT/CodelistID": "DSDECOD",
      "CT/Codelist Name": "标准化名称",
      "Data Type": "Char",
      "cdnum": 6,
      "Term Decoded": "完成末次给药",
      "Term  Dictionaries": NaN,
      "Version": NaN,
      "flag": NaN
    },
    {
      "CT/CodelistID": "DSDECOD",
      "CT/Codelist Name": "标准化名称",
      "Data Type": "Char",
      "cdnum": 7,
      "Term Decoded": "完成试验",
      "Term  Dictionaries": NaN,
      "Version": NaN,
      "flag": NaN
    },
    {
      "CT/CodelistID": "DSDECOD",
      "CT/Codelist Name": "标准化名称",
      "Data Type": "Char",
      "cdnum": 8,
      "Term Decoded": "完成首次给药",
      "Term  Dictionaries": NaN,
      "Version": NaN,
      "flag": NaN
    },
    {
      "CT/CodelistID": "DVCAT",
      "CT/Codelist Name": "类别",
      "Data Type": "Char",
      "cdnum": 1,
      "Term Decoded": "其他",
      "Term  Dictionaries": NaN,
      "Version": NaN,
      "flag": NaN
    },
    {
      "CT/CodelistID": "DVCAT",
      "CT/Codelist Name": "类别",
      "Data Type": "Char",
      "cdnum": 2,
      "Term Decoded": "入排标准",
      "Term  Dictionaries": NaN,
      "Version": NaN,
      "flag": NaN
    },
    {
      "CT/CodelistID": "DVCAT",
      "CT/Codelist Name": "类别",
      "Data Type": "Char",
      "cdnum": 3,
      "Term Decoded": "研究访视",
      "Term  Dictionaries": NaN,
      "Version": NaN,
      "flag": NaN
    },
    {
      "CT/CodelistID": "DVCAT",
      "CT/Codelist Name": "类别",
      "Data Type": "Char",
      "cdnum": 4,
      "Term Decoded": "研究用药",
      "Term  Dictionaries": NaN,
      "Version": NaN,
      "flag": NaN
    },
    {
      "CT/CodelistID": "DVSCAT",
      "CT/Codelist Name": "子类",
      "Data Type": "Char",
      "cdnum": 1,
      "Term Decoded": "超温",
      "Term  Dictionaries": NaN,
      "Version": NaN,
      "flag": NaN
    },
    {
      "CT/CodelistID": "DVSCAT",
      "CT/Codelist Name": "子类",
      "Data Type": "Char",
      "cdnum": 2,
      "Term Decoded": "检查项超窗",
      "Term  Dictionaries": NaN,
      "Version": NaN,
      "flag": NaN
    },
    {
      "CT/CodelistID": "DVSCAT",
      "CT/Codelist Name": "子类",
      "Data Type": "Char",
      "cdnum": 3,
      "Term Decoded": "检查项误做",
      "Term  Dictionaries": NaN,
      "Version": NaN,
      "flag": NaN
    },
    {
      "CT/CodelistID": "DVSCAT",
      "CT/Codelist Name": "子类",
      "Data Type": "Char",
      "cdnum": 4,
      "Term Decoded": "违反入排标准",
      "Term  Dictionaries": NaN,
      "Version": NaN,
      "flag": NaN
    },
    {
      "CT/CodelistID": "DVSCAT",
      "CT/Codelist Name": "子类",
      "Data Type": "Char",
      "cdnum": 5,
      "Term Decoded": "未回收包装盒",
      "Term  Dictionaries": NaN,
      "Version": NaN,
      "flag": NaN
    },
    {
      "CT/CodelistID": "DVSCAT",
      "CT/Codelist Name": "子类",
      "Data Type": "Char",
      "cdnum": 6,
      "Term Decoded": "未完成方案规定检查项",
      "Term  Dictionaries": NaN,
      "Version": NaN,
      "flag": NaN
    },
    {
      "CT/CodelistID": "DVSCAT",
      "CT/Codelist Name": "子类",
      "Data Type": "Char",
      "cdnum": 7,
      "Term Decoded": "温度记录丢失",
      "Term  Dictionaries": NaN,
      "Version": NaN,
      "flag": NaN
    },
    {
      "CT/CodelistID": "DVSCAT",
      "CT/Codelist Name": "子类",
      "Data Type": "Char",
      "cdnum": 8,
      "Term Decoded": "药物使用超窗",
      "Term  Dictionaries": NaN,
      "Version": NaN,
      "flag": NaN
    },
    {
      "CT/CodelistID": "DVSEV",
      "CT/Codelist Name": "PD分级(严重程度)",
      "Data Type": "Char",
      "cdnum": 1,
      "Term Decoded": "轻度",
      "Term  Dictionaries": NaN,
      "Version": NaN,
      "flag": NaN
    },
    {
      "CT/CodelistID": "DVSEV",
      "CT/Codelist Name": "PD分级(严重程度)",
      "Data Type": "Char",
      "cdnum": 2,
      "Term Decoded": "重度",
      "Term  Dictionaries": NaN,
      "Version": NaN,
      "flag": NaN
    },
    {
      "CT/CodelistID": "EGCAT",
      "CT/Codelist Name": "类别",
      "Data Type": "Char",
      "cdnum": 1,
      "Term Decoded": "12导联心电图",
      "Term  Dictionaries": NaN,
      "Version": NaN,
      "flag": NaN
    },
    {
      "CT/CodelistID": "EGTEST",
      "CT/Codelist Name": "EG Test or Examination",
      "Data Type": "Char",
      "cdnum": 1,
      "Term Decoded": "PR间期",
      "Term  Dictionaries": NaN,
      "Version": NaN,
      "flag": NaN
    },
    {
      "CT/CodelistID": "EGTEST",
      "CT/Codelist Name": "EG Test or Examination",
      "Data Type": "Char",
      "cdnum": 2,
      "Term Decoded": "QRS间期",
      "Term  Dictionaries": NaN,
      "Version": NaN,
      "flag": NaN
    },
    {
      "CT/CodelistID": "EGTEST",
      "CT/Codelist Name": "EG Test or Examination",
      "Data Type": "Char",
      "cdnum": 3,
      "Term Decoded": "QT间期",
      "Term  Dictionaries": NaN,
      "Version": NaN,
      "flag": NaN
    },
    {
      "CT/CodelistID": "EGTEST",
      "CT/Codelist Name": "EG Test or Examination",
      "Data Type": "Char",
      "cdnum": 4,
      "Term Decoded": "RR间期",
      "Term  Dictionaries": NaN,
      "Version": NaN,
      "flag": NaN
    },
    {
      "CT/CodelistID": "EGTEST",
      "CT/Codelist Name": "EG Test or Examination",
      "Data Type": "Char",
      "cdnum": 5,
      "Term Decoded": "临床意义判定",
      "Term  Dictionaries": NaN,
      "Version": NaN,
      "flag": NaN
    },
    {
      "CT/CodelistID": "EGTEST",
      "CT/Codelist Name": "EG Test or Examination",
      "Data Type": "Char",
      "cdnum": 6,
      "Term Decoded": "平均校正QT间期",
      "Term  Dictionaries": NaN,
      "Version": NaN,
      "flag": NaN
    },
    {
      "CT/CodelistID": "EGTEST",
      "CT/Codelist Name": "EG Test or Examination",
      "Data Type": "Char",
      "cdnum": 7,
      "Term Decoded": "心率",
      "Term  Dictionaries": NaN,
      "Version": NaN,
      "flag": NaN
    },
    {
      "CT/CodelistID": "EGTESTCD",
      "CT/Codelist Name": "EG Test or Examination Short Name",
      "Data Type": "Char",
      "cdnum": 1,
      "Term Decoded": "PRAG",
      "Term  Dictionaries": "PR间期",
      "Version": NaN,
      "flag": NaN
    },
    {
      "CT/CodelistID": "EGTESTCD",
      "CT/Codelist Name": "EG Test or Examination Short Name",
      "Data Type": "Char",
      "cdnum": 2,
      "Term Decoded": "QRSAG",
      "Term  Dictionaries": "QRS间期",
      "Version": NaN,
      "flag": NaN
    },
    {
      "CT/CodelistID": "EGTESTCD",
      "CT/Codelist Name": "EG Test or Examination Short Name",
      "Data Type": "Char",
      "cdnum": 3,
      "Term Decoded": "QTAG",
      "Term  Dictionaries": "QT间期",
      "Version": NaN,
      "flag": NaN
    },
    {
      "CT/CodelistID": "EGTESTCD",
      "CT/Codelist Name": "EG Test or Examination Short Name",
      "Data Type": "Char",
      "cdnum": 4,
      "Term Decoded": "RRAG",
      "Term  Dictionaries": "RR间期",
      "Version": NaN,
      "flag": NaN
    },
    {
      "CT/CodelistID": "EGTESTCD",
      "CT/Codelist Name": "EG Test or Examination Short Name",
      "Data Type": "Char",
      "cdnum": 5,
      "Term Decoded": "INTP",
      "Term  Dictionaries": "临床意义判定",
      "Version": NaN,
      "flag": NaN
    },
    {
      "CT/CodelistID": "EGTESTCD",
      "CT/Codelist Name": "EG Test or Examination Short Name",
      "Data Type": "Char",
      "cdnum": 6,
      "Term Decoded": "QTCLAG",
      "Term  Dictionaries": "平均校正QT间期",
      "Version": NaN,
      "flag": NaN
    },
    {
      "CT/CodelistID": "EGTESTCD",
      "CT/Codelist Name": "EG Test or Examination Short Name",
      "Data Type": "Char",
      "cdnum": 7,
      "Term Decoded": "PULSE",
      "Term  Dictionaries": "心率",
      "Version": NaN,
      "flag": NaN
    },
    {
      "CT/CodelistID": "EGTPT",
      "CT/Codelist Name": "计划时点名称",
      "Data Type": "Char",
      "cdnum": 1,
      "Term Decoded": "C1D1_2.1",
      "Term  Dictionaries": NaN,
      "Version": NaN,
      "flag": NaN
    },
    {
      "CT/CodelistID": "EGTPT",
      "CT/Codelist Name": "计划时点名称",
      "Data Type": "Char",
      "cdnum": 2,
      "Term Decoded": "C1D1_2.2",
      "Term  Dictionaries": NaN,
      "Version": NaN,
      "flag": NaN
    },
    {
      "CT/CodelistID": "EGTPT",
      "CT/Codelist Name": "计划时点名称",
      "Data Type": "Char",
      "cdnum": 3,
      "Term Decoded": "C1D1_2.3",
      "Term  Dictionaries": NaN,
      "Version": NaN,
      "flag": NaN
    },
    {
      "CT/CodelistID": "EGTPT",
      "CT/Codelist Name": "计划时点名称",
      "Data Type": "Char",
      "cdnum": 4,
      "Term Decoded": "C1D1_2.4",
      "Term  Dictionaries": NaN,
      "Version": NaN,
      "flag": NaN
    },
    {
      "CT/CodelistID": "EGTPT",
      "CT/Codelist Name": "计划时点名称",
      "Data Type": "Char",
      "cdnum": 5,
      "Term Decoded": "C1D1_2.5",
      "Term  Dictionaries": NaN,
      "Version": NaN,
      "flag": NaN
    },
    {
      "CT/CodelistID": "EGTPT",
      "CT/Codelist Name": "计划时点名称",
      "Data Type": "Char",
      "cdnum": 6,
      "Term Decoded": "C1D8(±1)_4.1",
      "Term  Dictionaries": NaN,
      "Version": NaN,
      "flag": NaN
    },
    {
      "CT/CodelistID": "EGTPT",
      "CT/Codelist Name": "计划时点名称",
      "Data Type": "Char",
      "cdnum": 7,
      "Term Decoded": "C1D21(±3)_6.1",
      "Term  Dictionaries": NaN,
      "Version": NaN,
      "flag": NaN
    },
    {
      "CT/CodelistID": "EGTPT",
      "CT/Codelist Name": "计划时点名称",
      "Data Type": "Char",
      "cdnum": 8,
      "Term Decoded": "C2D1_7.1",
      "Term  Dictionaries": NaN,
      "Version": NaN,
      "flag": NaN
    },
    {
      "CT/CodelistID": "EGTPT",
      "CT/Codelist Name": "计划时点名称",
      "Data Type": "Char",
      "cdnum": 9,
      "Term Decoded": "C3D1_12.1",
      "Term  Dictionaries": NaN,
      "Version": NaN,
      "flag": NaN
    },
    {
      "CT/CodelistID": "EGTPT",
      "CT/Codelist Name": "计划时点名称",
      "Data Type": "Char",
      "cdnum": 10,
      "Term Decoded": "C4D1_16.1",
      "Term  Dictionaries": NaN,
      "Version": NaN,
      "flag": NaN
    },
    {
      "CT/CodelistID": "EGTPT",
      "CT/Codelist Name": "计划时点名称",
      "Data Type": "Char",
      "cdnum": 11,
      "Term Decoded": "计划外检查_20.1",
      "Term  Dictionaries": NaN,
      "Version": NaN,
      "flag": NaN
    },
    {
      "CT/CodelistID": "EGTPT",
      "CT/Codelist Name": "计划时点名称",
      "Data Type": "Char",
      "cdnum": 12,
      "Term Decoded": "计划外检查_20.2",
      "Term  Dictionaries": NaN,
      "Version": NaN,
      "flag": NaN
    },
    {
      "CT/CodelistID": "EGTPT",
      "CT/Codelist Name": "计划时点名称",
      "Data Type": "Char",
      "cdnum": 13,
      "Term Decoded": "计划外检查_20.3",
      "Term  Dictionaries": NaN,
      "Version": NaN,
      "flag": NaN
    },
    {
      "CT/CodelistID": "EGTPT",
      "CT/Codelist Name": "计划时点名称",
      "Data Type": "Char",
      "cdnum": 14,
      "Term Decoded": "计划外检查_20.4",
      "Term  Dictionaries": NaN,
      "Version": NaN,
      "flag": NaN
    },
    {
      "CT/CodelistID": "EGTPT",
      "CT/Codelist Name": "计划时点名称",
      "Data Type": "Char",
      "cdnum": 15,
      "Term Decoded": "计划外检查_20.5",
      "Term  Dictionaries": NaN,
      "Version": NaN,
      "flag": NaN
    },
    {
      "CT/CodelistID": "EGTPT",
      "CT/Codelist Name": "计划时点名称",
      "Data Type": "Char",
      "cdnum": 16,
      "Term Decoded": "计划外检查_20.6",
      "Term  Dictionaries": NaN,
      "Version": NaN,
      "flag": NaN
    },
    {
      "CT/CodelistID": "EGTPT",
      "CT/Codelist Name": "计划时点名称",
      "Data Type": "Char",
      "cdnum": 17,
      "Term Decoded": "筛选/基线期(D-28～D-1)_1.1",
      "Term  Dictionaries": NaN,
      "Version": NaN,
      "flag": NaN
    },
    {
      "CT/CodelistID": "EGTPT",
      "CT/Codelist Name": "计划时点名称",
      "Data Type": "Char",
      "cdnum": 18,
      "Term Decoded": "治疗结束/提前退出_19.1",
      "Term  Dictionaries": NaN,
      "Version": NaN,
      "flag": NaN
    },
    {
      "CT/CodelistID": "EGTPTNUM",
      "CT/Codelist Name": "计划时点编号",
      "Data Type": "Num",
      "cdnum": 1,
      "Term Decoded": "1.1",
      "Term  Dictionaries": "筛选/基线期(D-28～D-1)_1.1",
      "Version": NaN,
      "flag": NaN
    },
    {
      "CT/CodelistID": "EGTPTNUM",
      "CT/Codelist Name": "计划时点编号",
      "Data Type": "Num",
      "cdnum": 2,
      "Term Decoded": "2.1",
      "Term  Dictionaries": "C1D1_2.1",
      "Version": NaN,
      "flag": NaN
    },
    {
      "CT/CodelistID": "EGTPTNUM",
      "CT/Codelist Name": "计划时点编号",
      "Data Type": "Num",
      "cdnum": 3,
      "Term Decoded": "2.2",
      "Term  Dictionaries": "C1D1_2.2",
      "Version": NaN,
      "flag": NaN
    },
    {
      "CT/CodelistID": "EGTPTNUM",
      "CT/Codelist Name": "计划时点编号",
      "Data Type": "Num",
      "cdnum": 4,
      "Term Decoded": "2.3",
      "Term  Dictionaries": "C1D1_2.3",
      "Version": NaN,
      "flag": NaN
    },
    {
      "CT/CodelistID": "EGTPTNUM",
      "CT/Codelist Name": "计划时点编号",
      "Data Type": "Num",
      "cdnum": 5,
      "Term Decoded": "2.4",
      "Term  Dictionaries": "C1D1_2.4",
      "Version": NaN,
      "flag": NaN
    },
    {
      "CT/CodelistID": "EGTPTNUM",
      "CT/Codelist Name": "计划时点编号",
      "Data Type": "Num",
      "cdnum": 6,
      "Term Decoded": "2.5",
      "Term  Dictionaries": "C1D1_2.5",
      "Version": NaN,
      "flag": NaN
    },
    {
      "CT/CodelistID": "EGTPTNUM",
      "CT/Codelist Name": "计划时点编号",
      "Data Type": "Num",
      "cdnum": 7,
      "Term Decoded": "4.1",
      "Term  Dictionaries": "C1D8(±1)_4.1",
      "Version": NaN,
      "flag": NaN
    },
    {
      "CT/CodelistID": "EGTPTNUM",
      "CT/Codelist Name": "计划时点编号",
      "Data Type": "Num",
      "cdnum": 8,
      "Term Decoded": "6.1",
      "Term  Dictionaries": "C1D21(±3)_6.1",
      "Version": NaN,
      "flag": NaN
    },
    {
      "CT/CodelistID": "EGTPTNUM",
      "CT/Codelist Name": "计划时点编号",
      "Data Type": "Num",
      "cdnum": 9,
      "Term Decoded": "7.1",
      "Term  Dictionaries": "C2D1_7.1",
      "Version": NaN,
      "flag": NaN
    },
    {
      "CT/CodelistID": "EGTPTNUM",
      "CT/Codelist Name": "计划时点编号",
      "Data Type": "Num",
      "cdnum": 10,
      "Term Decoded": "12.1",
      "Term  Dictionaries": "C3D1_12.1",
      "Version": NaN,
      "flag": NaN
    },
    {
      "CT/CodelistID": "EGTPTNUM",
      "CT/Codelist Name": "计划时点编号",
      "Data Type": "Num",
      "cdnum": 11,
      "Term Decoded": "16.1",
      "Term  Dictionaries": "C4D1_16.1",
      "Version": NaN,
      "flag": NaN
    },
    {
      "CT/CodelistID": "EGTPTNUM",
      "CT/Codelist Name": "计划时点编号",
      "Data Type": "Num",
      "cdnum": 12,
      "Term Decoded": "19.1",
      "Term  Dictionaries": "治疗结束/提前退出_19.1",
      "Version": NaN,
      "flag": NaN
    },
    {
      "CT/CodelistID": "EGTPTNUM",
      "CT/Codelist Name": "计划时点编号",
      "Data Type": "Num",
      "cdnum": 13,
      "Term Decoded": "20.1",
      "Term  Dictionaries": "计划外检查_20.1",
      "Version": NaN,
      "flag": NaN
    },
    {
      "CT/CodelistID": "EGTPTNUM",
      "CT/Codelist Name": "计划时点编号",
      "Data Type": "Num",
      "cdnum": 14,
      "Term Decoded": "20.2",
      "Term  Dictionaries": "计划外检查_20.2",
      "Version": NaN,
      "flag": NaN
    },
    {
      "CT/CodelistID": "EGTPTNUM",
      "CT/Codelist Name": "计划时点编号",
      "Data Type": "Num",
      "cdnum": 15,
      "Term Decoded": "20.3",
      "Term  Dictionaries": "计划外检查_20.3",
      "Version": NaN,
      "flag": NaN
    },
    {
      "CT/CodelistID": "EGTPTNUM",
      "CT/Codelist Name": "计划时点编号",
      "Data Type": "Num",
      "cdnum": 16,
      "Term Decoded": "20.4",
      "Term  Dictionaries": "计划外检查_20.4",
      "Version": NaN,
      "flag": NaN
    },
    {
      "CT/CodelistID": "EGTPTNUM",
      "CT/Codelist Name": "计划时点编号",
      "Data Type": "Num",
      "cdnum": 17,
      "Term Decoded": "20.5",
      "Term  Dictionaries": "计划外检查_20.5",
      "Version": NaN,
      "flag": NaN
    },
    {
      "CT/CodelistID": "EGTPTNUM",
      "CT/Codelist Name": "计划时点编号",
      "Data Type": "Num",
      "cdnum": 18,
      "Term Decoded": "20.6",
      "Term  Dictionaries": "计划外检查_20.6",
      "Version": NaN,
      "flag": NaN
    },
    {
      "CT/CodelistID": "ELEMENT",
      "CT/Codelist Name": "元素描述",
      "Data Type": "Char",
      "cdnum": 1,
      "Term Decoded": "筛选/基线期",
      "Term  Dictionaries": NaN,
      "Version": NaN,
      "flag": "Y"
    },
    {
      "CT/CodelistID": "ELEMENT",
      "CT/Codelist Name": "元素描述",
      "Data Type": "Char",
      "cdnum": 2,
      "Term Decoded": "MR001(0.1mg/kg)",
      "Term  Dictionaries": NaN,
      "Version": NaN,
      "flag": "Y"
    },
    {
      "CT/CodelistID": "ELEMENT",
      "CT/Codelist Name": "元素描述",
      "Data Type": "Char",
      "cdnum": 3,
      "Term Decoded": "MR001(0.5mg/kg)",
      "Term  Dictionaries": NaN,
      "Version": NaN,
      "flag": "Y"
    },
    {
      "CT/CodelistID": "ELEMENT",
      "CT/Codelist Name": "元素描述",
      "Data Type": "Char",
      "cdnum": 4,
      "Term Decoded": "MR001(2mg/kg)",
      "Term  Dictionaries": NaN,
      "Version": NaN,
      "flag": "Y"
    },
    {
      "CT/CodelistID": "ELEMENT",
      "CT/Codelist Name": "元素描述",
      "Data Type": "Char",
      "cdnum": 5,
      "Term Decoded": "MR001(6mg/kg)",
      "Term  Dictionaries": NaN,
      "Version": NaN,
      "flag": "Y"
    },
    {
      "CT/CodelistID": "ELEMENT",
      "CT/Codelist Name": "元素描述",
      "Data Type": "Char",
      "cdnum": 6,
      "Term Decoded": "MR001(10mg/kg)",
      "Term  Dictionaries": NaN,
      "Version": NaN,
      "flag": "Y"
    },
    {
      "CT/CodelistID": "ELEMENT",
      "CT/Codelist Name": "元素描述",
      "Data Type": "Char",
      "cdnum": 7,
      "Term Decoded": "FOLLOW UP",
      "Term  Dictionaries": NaN,
      "Version": NaN,
      "flag": "Y"
    },
    {
      "CT/CodelistID": "ETCD",
      "CT/Codelist Name": "元素编码",
      "Data Type": "Char",
      "cdnum": 1,
      "Term Decoded": "SCRN",
      "Term  Dictionaries": "筛选/基线期",
      "Version": NaN,
      "flag": "Y"
    },
    {
      "CT/CodelistID": "ETCD",
      "CT/Codelist Name": "元素编码",
      "Data Type": "Char",
      "cdnum": 2,
      "Term Decoded": "MR001_.1",
      "Term  Dictionaries": "MR001(0.1mg/kg)",
      "Version": NaN,
      "flag": "Y"
    },
    {
      "CT/CodelistID": "ETCD",
      "CT/Codelist Name": "元素编码",
      "Data Type": "Char",
      "cdnum": 3,
      "Term Decoded": "MR001_.5",
      "Term  Dictionaries": "MR001(0.5mg/kg)",
      "Version": NaN,
      "flag": "Y"
    },
    {
      "CT/CodelistID": "ETCD",
      "CT/Codelist Name": "元素编码",
      "Data Type": "Char",
      "cdnum": 4,
      "Term Decoded": "MR001_2",
      "Term  Dictionaries": "MR001(2mg/kg)",
      "Version": NaN,
      "flag": "Y"
    },
    {
      "CT/CodelistID": "ETCD",
      "CT/Codelist Name": "元素编码",
      "Data Type": "Char",
      "cdnum": 5,
      "Term Decoded": "MR001_6",
      "Term  Dictionaries": "MR001(6mg/kg)",
      "Version": NaN,
      "flag": "Y"
    },
    {
      "CT/CodelistID": "ETCD",
      "CT/Codelist Name": "元素编码",
      "Data Type": "Char",
      "cdnum": 6,
      "Term Decoded": "MR001_10",
      "Term  Dictionaries": "MR001(10mg/kg)",
      "Version": NaN,
      "flag": "Y"
    },
    {
      "CT/CodelistID": "ETCD",
      "CT/Codelist Name": "元素编码",
      "Data Type": "Char",
      "cdnum": 7,
      "Term Decoded": "FLP",
      "Term  Dictionaries": "FOLLOW UP",
      "Version": NaN,
      "flag": "Y"
    },
    {
      "CT/CodelistID": "EPOCH",
      "CT/Codelist Name": "时期",
      "Data Type": "Char",
      "cdnum": 1,
      "Term Decoded": "SCREENING",
      "Term  Dictionaries": NaN,
      "Version": NaN,
      "flag": NaN
    },
    {
      "CT/CodelistID": "EPOCH",
      "CT/Codelist Name": "时期",
      "Data Type": "Char",
      "cdnum": 2,
      "Term Decoded": "TREATMENT",
      "Term  Dictionaries": NaN,
      "Version": NaN,
      "flag": NaN
    },
    {
      "CT/CodelistID": "EPOCH",
      "CT/Codelist Name": "时期",
      "Data Type": "Char",
      "cdnum": 3,
      "Term Decoded": "FOLLOW-UP",
      "Term  Dictionaries": NaN,
      "Version": NaN,
      "flag": NaN
    },
    {
      "CT/CodelistID": "ETHNICC",
      "CT/Codelist Name": "族群",
      "Data Type": "Char",
      "cdnum": 1,
      "Term Decoded": "汉族",
      "Term  Dictionaries": NaN,
      "Version": NaN,
      "flag": NaN
    },
    {
      "CT/CodelistID": "ETHNICC",
      "CT/Codelist Name": "族群",
      "Data Type": "Char",
      "cdnum": 2,
      "Term Decoded": "其他",
      "Term  Dictionaries": NaN,
      "Version": NaN,
      "flag": NaN
    },
    {
      "CT/CodelistID": "EVAL",
      "CT/Codelist Name": "评估者",
      "Data Type": "Char",
      "cdnum": 1,
      "Term Decoded": "研究者",
      "Term  Dictionaries": NaN,
      "Version": NaN,
      "flag": NaN
    },
    {
      "CT/CodelistID": "FREQ",
      "CT/Codelist Name": "频率",
      "Data Type": "Char",
      "cdnum": 1,
      "Term Decoded": "1-2次/天",
      "Term  Dictionaries": NaN,
      "Version": NaN,
      "flag": NaN
    },
    {
      "CT/CodelistID": "FREQ",
      "CT/Codelist Name": "频率",
      "Data Type": "Char",
      "cdnum": 2,
      "Term Decoded": "1/6小时",
      "Term  Dictionaries": NaN,
      "Version": NaN,
      "flag": NaN
    },
    {
      "CT/CodelistID": "FREQ",
      "CT/Codelist Name": "频率",
      "Data Type": "Char",
      "cdnum": 3,
      "Term Decoded": "1/日",
      "Term  Dictionaries": NaN,
      "Version": NaN,
      "flag": NaN
    },
    {
      "CT/CodelistID": "FREQ",
      "CT/Codelist Name": "频率",
      "Data Type": "Char",
      "cdnum": 4,
      "Term Decoded": "2/日",
      "Term  Dictionaries": NaN,
      "Version": NaN,
      "flag": NaN
    },
    {
      "CT/CodelistID": "FREQ",
      "CT/Codelist Name": "频率",
      "Data Type": "Char",
      "cdnum": 5,
      "Term Decoded": "3/日",
      "Term  Dictionaries": NaN,
      "Version": NaN,
      "flag": NaN
    },
    {
      "CT/CodelistID": "FREQ",
      "CT/Codelist Name": "频率",
      "Data Type": "Char",
      "cdnum": 6,
      "Term Decoded": "3W（每三周一次）",
      "Term  Dictionaries": NaN,
      "Version": NaN,
      "flag": NaN
    },
    {
      "CT/CodelistID": "FREQ",
      "CT/Codelist Name": "频率",
      "Data Type": "Char",
      "cdnum": 7,
      "Term Decoded": "3月/次",
      "Term  Dictionaries": NaN,
      "Version": NaN,
      "flag": NaN
    },
    {
      "CT/CodelistID": "FREQ",
      "CT/Codelist Name": "频率",
      "Data Type": "Char",
      "cdnum": 8,
      "Term Decoded": "4/日",
      "Term  Dictionaries": NaN,
      "Version": NaN,
      "flag": NaN
    },
    {
      "CT/CodelistID": "FREQ",
      "CT/Codelist Name": "频率",
      "Data Type": "Char",
      "cdnum": 9,
      "Term Decoded": "4W（每四周一次）",
      "Term  Dictionaries": NaN,
      "Version": NaN,
      "flag": NaN
    },
    {
      "CT/CodelistID": "FREQ",
      "CT/Codelist Name": "频率",
      "Data Type": "Char",
      "cdnum": 10,
      "Term Decoded": "5/日",
      "Term  Dictionaries": NaN,
      "Version": NaN,
      "flag": NaN
    },
    {
      "CT/CodelistID": "FREQ",
      "CT/Codelist Name": "频率",
      "Data Type": "Char",
      "cdnum": 11,
      "Term Decoded": "6/日",
      "Term  Dictionaries": NaN,
      "Version": NaN,
      "flag": NaN
    },
    {
      "CT/CodelistID": "FREQ",
      "CT/Codelist Name": "频率",
      "Data Type": "Char",
      "cdnum": 12,
      "Term Decoded": "7/日",
      "Term  Dictionaries": NaN,
      "Version": NaN,
      "flag": NaN
    },
    {
      "CT/CodelistID": "FREQ",
      "CT/Codelist Name": "频率",
      "Data Type": "Char",
      "cdnum": 13,
      "Term Decoded": "8/日",
      "Term  Dictionaries": NaN,
      "Version": NaN,
      "flag": NaN
    },
    {
      "CT/CodelistID": "FREQ",
      "CT/Codelist Name": "频率",
      "Data Type": "Char",
      "cdnum": 14,
      "Term Decoded": "024-1-10、2024-2-6、2024-2-28、2024-3-19、2024-4-9、2024-4-30每日2次d1-d14",
      "Term  Dictionaries": NaN,
      "Version": NaN,
      "flag": NaN
    },
    {
      "CT/CodelistID": "FREQ",
      "CT/Codelist Name": "频率",
      "Data Type": "Char",
      "cdnum": 15,
      "Term Decoded": "2019-11-08、2019-11-08、2019-11-26、2019-12-18、2020-01-06once",
      "Term  Dictionaries": NaN,
      "Version": NaN,
      "flag": NaN
    },
    {
      "CT/CodelistID": "FREQ",
      "CT/Codelist Name": "频率",
      "Data Type": "Char",
      "cdnum": 16,
      "Term Decoded": "2019-11-08、2019-11-08、2019-11-26、2019-12-18、2020-01-06qd/d1-2",
      "Term  Dictionaries": NaN,
      "Version": NaN,
      "flag": NaN
    },
    {
      "CT/CodelistID": "FREQ",
      "CT/Codelist Name": "频率",
      "Data Type": "Char",
      "cdnum": 17,
      "Term Decoded": "2019-11-08、2019-11-26once",
      "Term  Dictionaries": NaN,
      "Version": NaN,
      "flag": NaN
    },
    {
      "CT/CodelistID": "FREQ",
      "CT/Codelist Name": "频率",
      "Data Type": "Char",
      "cdnum": 18,
      "Term Decoded": "2019-12-18、2020-01-06once",
      "Term  Dictionaries": NaN,
      "Version": NaN,
      "flag": NaN
    },
    {
      "CT/CodelistID": "FREQ",
      "CT/Codelist Name": "频率",
      "Data Type": "Char",
      "cdnum": 19,
      "Term Decoded": "2020-03-02、2020-04-20、2020-05-07、2020-05-25、2020-06-15、2020-07-04once",
      "Term  Dictionaries": NaN,
      "Version": NaN,
      "flag": NaN
    },
    {
      "CT/CodelistID": "FREQ",
      "CT/Codelist Name": "频率",
      "Data Type": "Char",
      "cdnum": 20,
      "Term Decoded": "2020-05-07、2020-05-25、2020-06-15、2020-07-04once",
      "Term  Dictionaries": NaN,
      "Version": NaN,
      "flag": NaN
    },
    {
      "CT/CodelistID": "FREQ",
      "CT/Codelist Name": "频率",
      "Data Type": "Char",
      "cdnum": 21,
      "Term Decoded": "2020-07-24、2020-08-17、2020-09-08、2020-09-30、2020-10-26once",
      "Term  Dictionaries": NaN,
      "Version": NaN,
      "flag": NaN
    },
    {
      "CT/CodelistID": "FREQ",
      "CT/Codelist Name": "频率",
      "Data Type": "Char",
      "cdnum": 22,
      "Term Decoded": "2021-08-18、2021-09-08、2021-09-30、2021-10-20、2021-11-11、2021-12-01once",
      "Term  Dictionaries": NaN,
      "Version": NaN,
      "flag": NaN
    },
    {
      "CT/CodelistID": "FREQ",
      "CT/Codelist Name": "频率",
      "Data Type": "Char",
      "cdnum": 23,
      "Term Decoded": "2021-12-22、2022-01-12、2022-02-10、2022-03-29、2022-04-272022-05-182022-06-082022-07-06once",
      "Term  Dictionaries": NaN,
      "Version": NaN,
      "flag": NaN
    },
    {
      "CT/CodelistID": "FREQ",
      "CT/Codelist Name": "频率",
      "Data Type": "Char",
      "cdnum": 24,
      "Term Decoded": "2022-3-18、2022-4-9、2022-4-30、2022-5-23、2022-06-17、2022-07-07、2022-07-28、2022-08-16每日1次",
      "Term  Dictionaries": NaN,
      "Version": NaN,
      "flag": NaN
    },
    {
      "CT/CodelistID": "FREQ",
      "CT/Codelist Name": "频率",
      "Data Type": "Char",
      "cdnum": 25,
      "Term Decoded": "2022-04-19、2022-05-09、2022-05-31、2022-06-21、2022-07-12ONCE",
      "Term  Dictionaries": NaN,
      "Version": NaN,
      "flag": NaN
    },
    {
      "CT/CodelistID": "FREQ",
      "CT/Codelist Name": "频率",
      "Data Type": "Char",
      "cdnum": 26,
      "Term Decoded": "2022-08-02、2022-08-23、2022-09-12ONCE",
      "Term  Dictionaries": NaN,
      "Version": NaN,
      "flag": NaN
    },
    {
      "CT/CodelistID": "FREQ",
      "CT/Codelist Name": "频率",
      "Data Type": "Char",
      "cdnum": 27,
      "Term Decoded": "2022-08-012022-08-262022-09-162022-10-132022-11-092022-12-012023-02-132023-03-10once",
      "Term  Dictionaries": NaN,
      "Version": NaN,
      "flag": NaN
    },
    {
      "CT/CodelistID": "FREQ",
      "CT/Codelist Name": "频率",
      "Data Type": "Char",
      "cdnum": 28,
      "Term Decoded": "2022-11-16、2022-12-06、2023-2-20、2023-3-13每日1次",
      "Term  Dictionaries": NaN,
      "Version": NaN,
      "flag": NaN
    },
    {
      "CT/CodelistID": "FREQ",
      "CT/Codelist Name": "频率",
      "Data Type": "Char",
      "cdnum": 29,
      "Term Decoded": "2022-12-06、2023-2-20、2023-3-13每日1次",
      "Term  Dictionaries": NaN,
      "Version": NaN,
      "flag": NaN
    },
    {
      "CT/CodelistID": "FREQ",
      "CT/Codelist Name": "频率",
      "Data Type": "Char",
      "cdnum": 30,
      "Term Decoded": "2023-4-10、2023-05-05、2023-5-29、2023-6-20、2023-7-11、2023-8-2、2023-8-28每日1次",
      "Term  Dictionaries": NaN,
      "Version": NaN,
      "flag": NaN
    },
    {
      "CT/CodelistID": "FREQ",
      "CT/Codelist Name": "频率",
      "Data Type": "Char",
      "cdnum": 31,
      "Term Decoded": "2023-4-10、2023-05-05、2023-5-29、2023-6-20、2023-7-11、2023-8-2、2023-8-28每日2次",
      "Term  Dictionaries": NaN,
      "Version": NaN,
      "flag": NaN
    },
    {
      "CT/CodelistID": "FREQ",
      "CT/Codelist Name": "频率",
      "Data Type": "Char",
      "cdnum": 32,
      "Term Decoded": "2023-04-082023-05-052023-05-31once",
      "Term  Dictionaries": NaN,
      "Version": NaN,
      "flag": NaN
    },
    {
      "CT/CodelistID": "FREQ",
      "CT/Codelist Name": "频率",
      "Data Type": "Char",
      "cdnum": 33,
      "Term Decoded": "2023-06-292023-07-UK2023-08-UK2023-09-UK2023-10-UK2023-11-UK2023-12-UKonce",
      "Term  Dictionaries": NaN,
      "Version": NaN,
      "flag": NaN
    },
    {
      "CT/CodelistID": "FREQ",
      "CT/Codelist Name": "频率",
      "Data Type": "Char",
      "cdnum": 34,
      "Term Decoded": "2023-10-18、2023-11-09、2023-11-29、2023-12-20每日一次",
      "Term  Dictionaries": NaN,
      "Version": NaN,
      "flag": NaN
    },
    {
      "CT/CodelistID": "FREQ",
      "CT/Codelist Name": "频率",
      "Data Type": "Char",
      "cdnum": 35,
      "Term Decoded": "2023.3.242023.4.212023.5.212023.6.22023.6.262023.7.182023.8.82023.8.312023.9.20",
      "Term  Dictionaries": NaN,
      "Version": NaN,
      "flag": NaN
    },
    {
      "CT/CodelistID": "FREQ",
      "CT/Codelist Name": "频率",
      "Data Type": "Char",
      "cdnum": 36,
      "Term Decoded": "2023.10.112023.11.012023.11.222023.12.132024.1.262024.2.192024.3.13",
      "Term  Dictionaries": NaN,
      "Version": NaN,
      "flag": NaN
    },
    {
      "CT/CodelistID": "FREQ",
      "CT/Codelist Name": "频率",
      "Data Type": "Char",
      "cdnum": 37,
      "Term Decoded": "2024-1-10、2024-2-6、2024-2-28、2024-3-19、2024-4-9、2024-4-30每日一次",
      "Term  Dictionaries": NaN,
      "Version": NaN,
      "flag": NaN
    },
    {
      "CT/CodelistID": "FREQ",
      "CT/Codelist Name": "频率",
      "Data Type": "Char",
      "cdnum": 38,
      "Term Decoded": "2024.2.9共注射3次",
      "Term  Dictionaries": NaN,
      "Version": NaN,
      "flag": NaN
    },
    {
      "CT/CodelistID": "FREQ",
      "CT/Codelist Name": "频率",
      "Data Type": "Char",
      "cdnum": 39,
      "Term Decoded": "20230111/20230204/20230221/20230315/20230403/20230427/20230515/20230606/20230629/20230720ONCE",
      "Term  Dictionaries": NaN,
      "Version": NaN,
      "flag": NaN
    },
    {
      "CT/CodelistID": "FREQ",
      "CT/Codelist Name": "频率",
      "Data Type": "Char",
      "cdnum": 40,
      "Term Decoded": "20230810/20230901/20230926/20231019ONCE",
      "Term  Dictionaries": NaN,
      "Version": NaN,
      "flag": NaN
    },
    {
      "CT/CodelistID": "FREQ",
      "CT/Codelist Name": "频率",
      "Data Type": "Char",
      "cdnum": 41,
      "Term Decoded": "20231109/20231206/20231212、20240117ONCE",
      "Term  Dictionaries": NaN,
      "Version": NaN,
      "flag": NaN
    },
    {
      "CT/CodelistID": "FREQ",
      "CT/Codelist Name": "频率",
      "Data Type": "Char",
      "cdnum": 42,
      "Term Decoded": "bid,d1-14,q3w",
      "Term  Dictionaries": NaN,
      "Version": NaN,
      "flag": NaN
    },
    {
      "CT/CodelistID": "FREQ",
      "CT/Codelist Name": "频率",
      "Data Type": "Char",
      "cdnum": 43,
      "Term Decoded": "BID,d1-14,q3w",
      "Term  Dictionaries": NaN,
      "Version": NaN,
      "flag": NaN
    },
    {
      "CT/CodelistID": "FREQ",
      "CT/Codelist Name": "频率",
      "Data Type": "Char",
      "cdnum": 44,
      "Term Decoded": "BID（每日两次）",
      "Term  Dictionaries": NaN,
      "Version": NaN,
      "flag": NaN
    },
    {
      "CT/CodelistID": "FREQ",
      "CT/Codelist Name": "频率",
      "Data Type": "Char",
      "cdnum": 45,
      "Term Decoded": "BIW（每周两次）",
      "Term  Dictionaries": NaN,
      "Version": NaN,
      "flag": NaN
    },
    {
      "CT/CodelistID": "FREQ",
      "CT/Codelist Name": "频率",
      "Data Type": "Char",
      "cdnum": 46,
      "Term Decoded": "d1",
      "Term  Dictionaries": NaN,
      "Version": NaN,
      "flag": NaN
    },
    {
      "CT/CodelistID": "FREQ",
      "CT/Codelist Name": "频率",
      "Data Type": "Char",
      "cdnum": 47,
      "Term Decoded": "d1-d2",
      "Term  Dictionaries": NaN,
      "Version": NaN,
      "flag": NaN
    },
    {
      "CT/CodelistID": "FREQ",
      "CT/Codelist Name": "频率",
      "Data Type": "Char",
      "cdnum": 48,
      "Term Decoded": "d1-d14,q3w",
      "Term  Dictionaries": NaN,
      "Version": NaN,
      "flag": NaN
    },
    {
      "CT/CodelistID": "FREQ",
      "CT/Codelist Name": "频率",
      "Data Type": "Char",
      "cdnum": 49,
      "Term Decoded": "d1,d8",
      "Term  Dictionaries": NaN,
      "Version": NaN,
      "flag": NaN
    },
    {
      "CT/CodelistID": "FREQ",
      "CT/Codelist Name": "频率",
      "Data Type": "Char",
      "cdnum": 50,
      "Term Decoded": "d1,d8,q3w",
      "Term  Dictionaries": NaN,
      "Version": NaN,
      "flag": NaN
    },
    {
      "CT/CodelistID": "FREQ",
      "CT/Codelist Name": "频率",
      "Data Type": "Char",
      "cdnum": 51,
      "Term Decoded": "d1,d8q3w",
      "Term  Dictionaries": NaN,
      "Version": NaN,
      "flag": NaN
    },
    {
      "CT/CodelistID": "FREQ",
      "CT/Codelist Name": "频率",
      "Data Type": "Char",
      "cdnum": 52,
      "Term Decoded": "IV，",
      "Term  Dictionaries": NaN,
      "Version": NaN,
      "flag": NaN
    },
    {
      "CT/CodelistID": "FREQ",
      "CT/Codelist Name": "频率",
      "Data Type": "Char",
      "cdnum": 53,
      "Term Decoded": NaN,
      "Term  Dictionaries": NaN,
      "Version": NaN,
      "flag": NaN
    },
    {
      "CT/CodelistID": "FREQ",
      "CT/Codelist Name": "频率",
      "Data Type": "Char",
      "cdnum": 54,
      "Term Decoded": "once",
      "Term  Dictionaries": NaN,
      "Version": NaN,
      "flag": NaN
    },
    {
      "CT/CodelistID": "FREQ",
      "CT/Codelist Name": "频率",
      "Data Type": "Char",
      "cdnum": 55,
      "Term Decoded": "ONCE",
      "Term  Dictionaries": NaN,
      "Version": NaN,
      "flag": NaN
    },
    {
      "CT/CodelistID": "FREQ",
      "CT/Codelist Name": "频率",
      "Data Type": "Char",
      "cdnum": 56,
      "Term Decoded": "once（一次）",
      "Term  Dictionaries": NaN,
      "Version": NaN,
      "flag": NaN
    },
    {
      "CT/CodelistID": "FREQ",
      "CT/Codelist Name": "频率",
      "Data Type": "Char",
      "cdnum": 57,
      "Term Decoded": "prn（必要时）",
      "Term  Dictionaries": NaN,
      "Version": NaN,
      "flag": NaN
    },
    {
      "CT/CodelistID": "FREQ",
      "CT/Codelist Name": "频率",
      "Data Type": "Char",
      "cdnum": 58,
      "Term Decoded": "q3h（三小时一次）",
      "Term  Dictionaries": NaN,
      "Version": NaN,
      "flag": NaN
    },
    {
      "CT/CodelistID": "FREQ",
      "CT/Codelist Name": "频率",
      "Data Type": "Char",
      "cdnum": 59,
      "Term Decoded": "q4h（四小时一次）",
      "Term  Dictionaries": NaN,
      "Version": NaN,
      "flag": NaN
    },
    {
      "CT/CodelistID": "FREQ",
      "CT/Codelist Name": "频率",
      "Data Type": "Char",
      "cdnum": 60,
      "Term Decoded": "q6h（六小时一次）",
      "Term  Dictionaries": NaN,
      "Version": NaN,
      "flag": NaN
    },
    {
      "CT/CodelistID": "FREQ",
      "CT/Codelist Name": "频率",
      "Data Type": "Char",
      "cdnum": 61,
      "Term Decoded": "q8h（八小时一次）",
      "Term  Dictionaries": NaN,
      "Version": NaN,
      "flag": NaN
    },
    {
      "CT/CodelistID": "FREQ",
      "CT/Codelist Name": "频率",
      "Data Type": "Char",
      "cdnum": 62,
      "Term Decoded": "Q12H",
      "Term  Dictionaries": NaN,
      "Version": NaN,
      "flag": NaN
    },
    {
      "CT/CodelistID": "FREQ",
      "CT/Codelist Name": "频率",
      "Data Type": "Char",
      "cdnum": 63,
      "Term Decoded": "q12h（十二小时一次）",
      "Term  Dictionaries": NaN,
      "Version": NaN,
      "flag": NaN
    },
    {
      "CT/CodelistID": "FREQ",
      "CT/Codelist Name": "频率",
      "Data Type": "Char",
      "cdnum": 64,
      "Term Decoded": "QD（每日一次）",
      "Term  Dictionaries": NaN,
      "Version": NaN,
      "flag": NaN
    },
    {
      "CT/CodelistID": "FREQ",
      "CT/Codelist Name": "频率",
      "Data Type": "Char",
      "cdnum": 65,
      "Term Decoded": "qd/dl-2",
      "Term  Dictionaries": NaN,
      "Version": NaN,
      "flag": NaN
    },
    {
      "CT/CodelistID": "FREQ",
      "CT/Codelist Name": "频率",
      "Data Type": "Char",
      "cdnum": 66,
      "Term Decoded": "qn",
      "Term  Dictionaries": NaN,
      "Version": NaN,
      "flag": NaN
    },
    {
      "CT/CodelistID": "FREQ",
      "CT/Codelist Name": "频率",
      "Data Type": "Char",
      "cdnum": 67,
      "Term Decoded": "st （立即）",
      "Term  Dictionaries": NaN,
      "Version": NaN,
      "flag": NaN
    },
    {
      "CT/CodelistID": "FREQ",
      "CT/Codelist Name": "频率",
      "Data Type": "Char",
      "cdnum": 68,
      "Term Decoded": "TID（每日三次）",
      "Term  Dictionaries": NaN,
      "Version": NaN,
      "flag": NaN
    },
    {
      "CT/CodelistID": "FREQ",
      "CT/Codelist Name": "频率",
      "Data Type": "Char",
      "cdnum": 69,
      "Term Decoded": "uk",
      "Term  Dictionaries": NaN,
      "Version": NaN,
      "flag": NaN
    },
    {
      "CT/CodelistID": "FREQ",
      "CT/Codelist Name": "频率",
      "Data Type": "Char",
      "cdnum": 70,
      "Term Decoded": "UK",
      "Term  Dictionaries": NaN,
      "Version": NaN,
      "flag": NaN
    },
    {
      "CT/CodelistID": "FREQ",
      "CT/Codelist Name": "频率",
      "Data Type": "Char",
      "cdnum": 71,
      "Term Decoded": "unk",
      "Term  Dictionaries": NaN,
      "Version": NaN,
      "flag": NaN
    },
    {
      "CT/CodelistID": "FREQ",
      "CT/Codelist Name": "频率",
      "Data Type": "Char",
      "cdnum": 72,
      "Term Decoded": "UNK",
      "Term  Dictionaries": NaN,
      "Version": NaN,
      "flag": NaN
    },
    {
      "CT/CodelistID": "FREQ",
      "CT/Codelist Name": "频率",
      "Data Type": "Char",
      "cdnum": 73,
      "Term Decoded": "UNK（未知）",
      "Term  Dictionaries": NaN,
      "Version": NaN,
      "flag": NaN
    },
    {
      "CT/CodelistID": "FREQ",
      "CT/Codelist Name": "频率",
      "Data Type": "Char",
      "cdnum": 74,
      "Term Decoded": "不详",
      "Term  Dictionaries": NaN,
      "Version": NaN,
      "flag": NaN
    },
    {
      "CT/CodelistID": "FREQ",
      "CT/Codelist Name": "频率",
      "Data Type": "Char",
      "cdnum": 75,
      "Term Decoded": "间隔4h",
      "Term  Dictionaries": NaN,
      "Version": NaN,
      "flag": NaN
    },
    {
      "CT/CodelistID": "FREQ",
      "CT/Codelist Name": "频率",
      "Data Type": "Char",
      "cdnum": 76,
      "Term Decoded": "每日两次",
      "Term  Dictionaries": NaN,
      "Version": NaN,
      "flag": NaN
    },
    {
      "CT/CodelistID": "FREQ",
      "CT/Codelist Name": "频率",
      "Data Type": "Char",
      "cdnum": 77,
      "Term Decoded": "每日一次",
      "Term  Dictionaries": NaN,
      "Version": NaN,
      "flag": NaN
    },
    {
      "CT/CodelistID": "FREQ",
      "CT/Codelist Name": "频率",
      "Data Type": "Char",
      "cdnum": 78,
      "Term Decoded": "每三周一次",
      "Term  Dictionaries": NaN,
      "Version": NaN,
      "flag": NaN
    },
    {
      "CT/CodelistID": "FREQ",
      "CT/Codelist Name": "频率",
      "Data Type": "Char",
      "cdnum": 79,
      "Term Decoded": "每四周一次",
      "Term  Dictionaries": NaN,
      "Version": NaN,
      "flag": NaN
    },
    {
      "CT/CodelistID": "FREQ",
      "CT/Codelist Name": "频率",
      "Data Type": "Char",
      "cdnum": 80,
      "Term Decoded": "每周二、四、六",
      "Term  Dictionaries": NaN,
      "Version": NaN,
      "flag": NaN
    },
    {
      "CT/CodelistID": "FREQ",
      "CT/Codelist Name": "频率",
      "Data Type": "Char",
      "cdnum": 81,
      "Term Decoded": "每周一，三，五",
      "Term  Dictionaries": NaN,
      "Version": NaN,
      "flag": NaN
    },
    {
      "CT/CodelistID": "FREQ",
      "CT/Codelist Name": "频率",
      "Data Type": "Char",
      "cdnum": 82,
      "Term Decoded": "其他",
      "Term  Dictionaries": NaN,
      "Version": NaN,
      "flag": NaN
    },
    {
      "CT/CodelistID": "FREQ",
      "CT/Codelist Name": "频率",
      "Data Type": "Char",
      "cdnum": 83,
      "Term Decoded": "晚，d1-14,q3w",
      "Term  Dictionaries": NaN,
      "Version": NaN,
      "flag": NaN
    },
    {
      "CT/CodelistID": "FREQ",
      "CT/Codelist Name": "频率",
      "Data Type": "Char",
      "cdnum": 84,
      "Term Decoded": "早，d1-14,q3w",
      "Term  Dictionaries": NaN,
      "Version": NaN,
      "flag": NaN
    },
    {
      "CT/CodelistID": "FRM",
      "CT/Codelist Name": "剂型",
      "Data Type": "Char",
      "cdnum": 1,
      "Term Decoded": "INJECTION, POWDER, LYOPHILIZED, FOR SOLUTION",
      "Term  Dictionaries": NaN,
      "Version": NaN,
      "flag": NaN
    },
    {
      "CT/CodelistID": "IECAT",
      "CT/Codelist Name": "类别",
      "Data Type": "Char",
      "cdnum": 1,
      "Term Decoded": "EXCLUSION",
      "Term  Dictionaries": NaN,
      "Version": NaN,
      "flag": NaN
    },
    {
      "CT/CodelistID": "IECAT",
      "CT/Codelist Name": "类别",
      "Data Type": "Char",
      "cdnum": 2,
      "Term Decoded": "INCLUSION",
      "Term  Dictionaries": NaN,
      "Version": NaN,
      "flag": NaN
    },
    {
      "CT/CodelistID": "IETEST",
      "CT/Codelist Name": "入选/排除标准",
      "Data Type": "Char",
      "cdnum": 1,
      "Term Decoded": "年龄≥18岁且≤75岁（含临界值）",
      "Term  Dictionaries": NaN,
      "Version": 1.0,
      "flag": "Y"
    },
    {
      "CT/CodelistID": "IETEST",
      "CT/Codelist Name": "入选/排除标准",
      "Data Type": "Char",
      "cdnum": 2,
      "Term Decoded": "标准治疗失败或对标准治疗不耐受或拒绝接受标准治疗的经组织学或细胞学证实的晚期转移性实体瘤患者；",
      "Term  Dictionaries": NaN,
      "Version": 1.0,
      "flag": "Y"
    },
    {
      "CT/CodelistID": "IETEST",
      "CT/Codelist Name": "入选/排除标准",
      "Data Type": "Char",
      "cdnum": 3,
      "Term Decoded": "根据RECIST 1.1标准，至少有1处可评估靶病灶；",
      "Term  Dictionaries": NaN,
      "Version": 1.0,
      "flag": "Y"
    },
    {
      "CT/CodelistID": "IETEST",
      "CT/Codelist Name": "入选/排除标准",
      "Data Type": "Char",
      "cdnum": 4,
      "Term Decoded": "ECOG评分体能状态为0-2；",
      "Term  Dictionaries": NaN,
      "Version": 1.0,
      "flag": "Y"
    },
    {
      "CT/CodelistID": "IETEST",
      "CT/Codelist Name": "入选/排除标准",
      "Data Type": "Char",
      "cdnum": 5,
      "Term Decoded": "有适宜的器官以及造血功能，无严重的器官功能异常。",
      "Term  Dictionaries": NaN,
      "Version": 1.0,
      "flag": "Y"
    },
    {
      "CT/CodelistID": "IETEST",
      "CT/Codelist Name": "入选/排除标准",
      "Data Type": "Char",
      "cdnum": 6,
      "Term Decoded": "CD4+T淋巴细胞计数＞350个/μL；",
      "Term  Dictionaries": NaN,
      "Version": 1.0,
      "flag": "Y"
    },
    {
      "CT/CodelistID": "IETEST",
      "CT/Codelist Name": "入选/排除标准",
      "Data Type": "Char",
      "cdnum": 7,
      "Term Decoded": "预期生存期≥3个月；",
      "Term  Dictionaries": NaN,
      "Version": 1.0,
      "flag": "Y"
    },
    {
      "CT/CodelistID": "IETEST",
      "CT/Codelist Name": "入选/排除标准",
      "Data Type": "Char",
      "cdnum": 8,
      "Term Decoded": "筛选前2周内至试验结束后3个月内无生育计划且同意在试验期间采取有效的非药物避孕措施；",
      "Term  Dictionaries": NaN,
      "Version": 1.0,
      "flag": "Y"
    },
    {
      "CT/CodelistID": "IETEST",
      "CT/Codelist Name": "入选/排除标准",
      "Data Type": "Char",
      "cdnum": 9,
      "Term Decoded": "自愿参加试验并签署知情同意书。",
      "Term  Dictionaries": NaN,
      "Version": 1.0,
      "flag": "Y"
    },
    {
      "CT/CodelistID": "IETEST",
      "CT/Codelist Name": "入选/排除标准",
      "Data Type": "Char",
      "cdnum": 10,
      "Term Decoded": "对试验药物或辅料过敏者；",
      "Term  Dictionaries": NaN,
      "Version": 1.0,
      "flag": "Y"
    },
    {
      "CT/CodelistID": "IETEST",
      "CT/Codelist Name": "入选/排除标准",
      "Data Type": "Char",
      "cdnum": 11,
      "Term Decoded": "未经有效控制的活动性脑转移或有脑膜转移的受试者",
      "Term  Dictionaries": NaN,
      "Version": 1.0,
      "flag": "Y"
    },
    {
      "CT/CodelistID": "IETEST",
      "CT/Codelist Name": "入选/排除标准",
      "Data Type": "Char",
      "cdnum": 12,
      "Term Decoded": "既往患有自身免疫性疾病，需使用糖皮质激素或免疫抑制药物者；",
      "Term  Dictionaries": NaN,
      "Version": 1.0,
      "flag": "Y"
    },
    {
      "CT/CodelistID": "IETEST",
      "CT/Codelist Name": "入选/排除标准",
      "Data Type": "Char",
      "cdnum": 13,
      "Term Decoded": "未经控制的合并症或癌性疼痛；",
      "Term  Dictionaries": NaN,
      "Version": 1.0,
      "flag": "Y"
    },
    {
      "CT/CodelistID": "IETEST",
      "CT/Codelist Name": "入选/排除标准",
      "Data Type": "Char",
      "cdnum": 14,
      "Term Decoded": "经药物治疗后仍无法控制的高血压（收缩压＞170 mmHg或舒张压＞100 mmHg）；",
      "Term  Dictionaries": NaN,
      "Version": 1.0,
      "flag": "Y"
    },
    {
      "CT/CodelistID": "IETEST",
      "CT/Codelist Name": "入选/排除标准",
      "Data Type": "Char",
      "cdnum": 15,
      "Term Decoded": "既往存在严重心脏疾病病史者",
      "Term  Dictionaries": NaN,
      "Version": 1.0,
      "flag": "Y"
    },
    {
      "CT/CodelistID": "IETEST",
      "CT/Codelist Name": "入选/排除标准",
      "Data Type": "Char",
      "cdnum": 16,
      "Term Decoded": "既往存在严重肾脏疾病病史者，如慢性肾炎、肾功能不全等；",
      "Term  Dictionaries": NaN,
      "Version": 1.0,
      "flag": "Y"
    },
    {
      "CT/CodelistID": "IETEST",
      "CT/Codelist Name": "入选/排除标准",
      "Data Type": "Char",
      "cdnum": 17,
      "Term Decoded": "目前存在未控制的活动性感染；",
      "Term  Dictionaries": NaN,
      "Version": 1.0,
      "flag": "Y"
    },
    {
      "CT/CodelistID": "IETEST",
      "CT/Codelist Name": "入选/排除标准",
      "Data Type": "Char",
      "cdnum": 18,
      "Term Decoded": "筛选时有活动性乙型肝炎、丙型肝炎、梅毒特异性抗体及人类免疫缺陷病毒（HIV）抗体筛查结果为阳性患者；",
      "Term  Dictionaries": NaN,
      "Version": 1.0,
      "flag": "Y"
    },
    {
      "CT/CodelistID": "IETEST",
      "CT/Codelist Name": "入选/排除标准",
      "Data Type": "Char",
      "cdnum": 19,
      "Term Decoded": "筛选前5年内发生其他恶性肿瘤，之前曾以根治为目的进行治疗的子宫颈原位癌、皮肤鳞状细胞癌或基底细胞癌除外；",
      "Term  Dictionaries": NaN,
      "Version": 1.0,
      "flag": "Y"
    },
    {
      "CT/CodelistID": "IETEST",
      "CT/Codelist Name": "入选/排除标准",
      "Data Type": "Char",
      "cdnum": 20,
      "Term Decoded": "筛选前28天内接种过新冠疫苗或筛选前3个月内接种过其他疫苗或计划在试验期间接种疫苗者；",
      "Term  Dictionaries": NaN,
      "Version": 1.0,
      "flag": "Y"
    },
    {
      "CT/CodelistID": "IETEST",
      "CT/Codelist Name": "入选/排除标准",
      "Data Type": "Char",
      "cdnum": 21,
      "Term Decoded": "首次给药前14天内接受系统性类固醇治疗且经研究者判定治疗期间需要长期使用系统性类固醇治疗的受试者；",
      "Term  Dictionaries": NaN,
      "Version": 1.0,
      "flag": "Y"
    },
    {
      "CT/CodelistID": "IETEST",
      "CT/Codelist Name": "入选/排除标准",
      "Data Type": "Char",
      "cdnum": 22,
      "Term Decoded": "首次给药前28天内参加过任何其他干预性临床试验；",
      "Term  Dictionaries": NaN,
      "Version": 1.0,
      "flag": "Y"
    },
    {
      "CT/CodelistID": "IETEST",
      "CT/Codelist Name": "入选/排除标准",
      "Data Type": "Char",
      "cdnum": 23,
      "Term Decoded": "首次给药前28天内接受过输血和/或集落刺激因子相关治疗；",
      "Term  Dictionaries": NaN,
      "Version": 1.0,
      "flag": "Y"
    },
    {
      "CT/CodelistID": "IETEST",
      "CT/Codelist Name": "入选/排除标准",
      "Data Type": "Char",
      "cdnum": 24,
      "Term Decoded": "首次给药前28天内接受过重大外科和/或抗肿瘤治疗，且未能从这些干预措施的毒性中恢复者，脱发除外；",
      "Term  Dictionaries": NaN,
      "Version": 1.0,
      "flag": "Y"
    },
    {
      "CT/CodelistID": "IETEST",
      "CT/Codelist Name": "入选/排除标准",
      "Data Type": "Char",
      "cdnum": 25,
      "Term Decoded": "备孕期、妊娠期、哺乳期女性；",
      "Term  Dictionaries": NaN,
      "Version": 1.0,
      "flag": "Y"
    },
    {
      "CT/CodelistID": "IETEST",
      "CT/Codelist Name": "入选/排除标准",
      "Data Type": "Char",
      "cdnum": 26,
      "Term Decoded": "研究者认为可能增加受试者风险或干扰试验结果的其他任何情况，认为不适宜进入本项试验者。",
      "Term  Dictionaries": NaN,
      "Version": 1.0,
      "flag": "Y"
    },
    {
      "CT/CodelistID": "IETEST",
      "CT/Codelist Name": "入选/排除标准",
      "Data Type": "Char",
      "cdnum": 27,
      "Term Decoded": "有适宜的器官以及造血功能，根据以下实验室检查，无严重的器官功能异常：",
      "Term  Dictionaries": NaN,
      "Version": 2.3,
      "flag": "Y"
    },
    {
      "CT/CodelistID": "IETESTCD",
      "CT/Codelist Name": "入选/排除标准简称",
      "Data Type": "Char",
      "cdnum": 1,
      "Term Decoded": "INCL01",
      "Term  Dictionaries": "年龄≥18岁且≤75岁（含临界值）",
      "Version": 1.0,
      "flag": "Y"
    },
    {
      "CT/CodelistID": "IETESTCD",
      "CT/Codelist Name": "入选/排除标准简称",
      "Data Type": "Char",
      "cdnum": 2,
      "Term Decoded": "INCL02",
      "Term  Dictionaries": "标准治疗失败或对标准治疗不耐受或拒绝接受标准治疗的经组织学或细胞学证实的晚期转移性实体瘤患者；",
      "Version": 1.0,
      "flag": "Y"
    },
    {
      "CT/CodelistID": "IETESTCD",
      "CT/Codelist Name": "入选/排除标准简称",
      "Data Type": "Char",
      "cdnum": 3,
      "Term Decoded": "INCL03",
      "Term  Dictionaries": "根据RECIST 1.1标准，至少有1处可评估靶病灶；",
      "Version": 1.0,
      "flag": "Y"
    },
    {
      "CT/CodelistID": "IETESTCD",
      "CT/Codelist Name": "入选/排除标准简称",
      "Data Type": "Char",
      "cdnum": 4,
      "Term Decoded": "INCL04",
      "Term  Dictionaries": "ECOG评分体能状态为0-2；",
      "Version": 1.0,
      "flag": "Y"
    },
    {
      "CT/CodelistID": "IETESTCD",
      "CT/Codelist Name": "入选/排除标准简称",
      "Data Type": "Char",
      "cdnum": 5,
      "Term Decoded": "INCL05",
      "Term  Dictionaries": "有适宜的器官以及造血功能，无严重的器官功能异常。",
      "Version": 1.0,
      "flag": "Y"
    },
    {
      "CT/CodelistID": "IETESTCD",
      "CT/Codelist Name": "入选/排除标准简称",
      "Data Type": "Char",
      "cdnum": 6,
      "Term Decoded": "INCL06",
      "Term  Dictionaries": "CD4+T淋巴细胞计数＞350个/μL；",
      "Version": 1.0,
      "flag": "Y"
    },
    {
      "CT/CodelistID": "IETESTCD",
      "CT/Codelist Name": "入选/排除标准简称",
      "Data Type": "Char",
      "cdnum": 7,
      "Term Decoded": "INCL07",
      "Term  Dictionaries": "预期生存期≥3个月；",
      "Version": 1.0,
      "flag": "Y"
    },
    {
      "CT/CodelistID": "IETESTCD",
      "CT/Codelist Name": "入选/排除标准简称",
      "Data Type": "Char",
      "cdnum": 8,
      "Term Decoded": "INCL08",
      "Term  Dictionaries": "筛选前2周内至试验结束后3个月内无生育计划且同意在试验期间采取有效的非药物避孕措施；",
      "Version": 1.0,
      "flag": "Y"
    },
    {
      "CT/CodelistID": "IETESTCD",
      "CT/Codelist Name": "入选/排除标准简称",
      "Data Type": "Char",
      "cdnum": 9,
      "Term Decoded": "INCL09",
      "Term  Dictionaries": "自愿参加试验并签署知情同意书。",
      "Version": 1.0,
      "flag": "Y"
    },
    {
      "CT/CodelistID": "IETESTCD",
      "CT/Codelist Name": "入选/排除标准简称",
      "Data Type": "Char",
      "cdnum": 10,
      "Term Decoded": "EXCL01",
      "Term  Dictionaries": "对试验药物或辅料过敏者；",
      "Version": 1.0,
      "flag": "Y"
    },
    {
      "CT/CodelistID": "IETESTCD",
      "CT/Codelist Name": "入选/排除标准简称",
      "Data Type": "Char",
      "cdnum": 11,
      "Term Decoded": "EXCL02",
      "Term  Dictionaries": "未经有效控制的活动性脑转移或有脑膜转移的受试者",
      "Version": 1.0,
      "flag": "Y"
    },
    {
      "CT/CodelistID": "IETESTCD",
      "CT/Codelist Name": "入选/排除标准简称",
      "Data Type": "Char",
      "cdnum": 12,
      "Term Decoded": "EXCL03",
      "Term  Dictionaries": "既往患有自身免疫性疾病，需使用糖皮质激素或免疫抑制药物者；",
      "Version": 1.0,
      "flag": "Y"
    },
    {
      "CT/CodelistID": "IETESTCD",
      "CT/Codelist Name": "入选/排除标准简称",
      "Data Type": "Char",
      "cdnum": 13,
      "Term Decoded": "EXCL04",
      "Term  Dictionaries": "未经控制的合并症或癌性疼痛；",
      "Version": 1.0,
      "flag": "Y"
    },
    {
      "CT/CodelistID": "IETESTCD",
      "CT/Codelist Name": "入选/排除标准简称",
      "Data Type": "Char",
      "cdnum": 14,
      "Term Decoded": "EXCL05",
      "Term  Dictionaries": "经药物治疗后仍无法控制的高血压（收缩压＞170 mmHg或舒张压＞100 mmHg）；",
      "Version": 1.0,
      "flag": "Y"
    },
    {
      "CT/CodelistID": "IETESTCD",
      "CT/Codelist Name": "入选/排除标准简称",
      "Data Type": "Char",
      "cdnum": 15,
      "Term Decoded": "EXCL06",
      "Term  Dictionaries": "既往存在严重心脏疾病病史者",
      "Version": 1.0,
      "flag": "Y"
    },
    {
      "CT/CodelistID": "IETESTCD",
      "CT/Codelist Name": "入选/排除标准简称",
      "Data Type": "Char",
      "cdnum": 16,
      "Term Decoded": "EXCL07",
      "Term  Dictionaries": "既往存在严重肾脏疾病病史者，如慢性肾炎、肾功能不全等；",
      "Version": 1.0,
      "flag": "Y"
    },
    {
      "CT/CodelistID": "IETESTCD",
      "CT/Codelist Name": "入选/排除标准简称",
      "Data Type": "Char",
      "cdnum": 17,
      "Term Decoded": "EXCL08",
      "Term  Dictionaries": "目前存在未控制的活动性感染；",
      "Version": 1.0,
      "flag": "Y"
    },
    {
      "CT/CodelistID": "IETESTCD",
      "CT/Codelist Name": "入选/排除标准简称",
      "Data Type": "Char",
      "cdnum": 18,
      "Term Decoded": "EXCL09",
      "Term  Dictionaries": "筛选时有活动性乙型肝炎、丙型肝炎、梅毒特异性抗体及人类免疫缺陷病毒（HIV）抗体筛查结果为阳性患者；",
      "Version": 1.0,
      "flag": "Y"
    },
    {
      "CT/CodelistID": "IETESTCD",
      "CT/Codelist Name": "入选/排除标准简称",
      "Data Type": "Char",
      "cdnum": 19,
      "Term Decoded": "EXCL10",
      "Term  Dictionaries": "筛选前5年内发生其他恶性肿瘤，之前曾以根治为目的进行治疗的子宫颈原位癌、皮肤鳞状细胞癌或基底细胞癌除外；",
      "Version": 1.0,
      "flag": "Y"
    },
    {
      "CT/CodelistID": "IETESTCD",
      "CT/Codelist Name": "入选/排除标准简称",
      "Data Type": "Char",
      "cdnum": 20,
      "Term Decoded": "EXCL11",
      "Term  Dictionaries": "筛选前28天内接种过新冠疫苗或筛选前3个月内接种过其他疫苗或计划在试验期间接种疫苗者；",
      "Version": 1.0,
      "flag": "Y"
    },
    {
      "CT/CodelistID": "IETESTCD",
      "CT/Codelist Name": "入选/排除标准简称",
      "Data Type": "Char",
      "cdnum": 21,
      "Term Decoded": "EXCL12",
      "Term  Dictionaries": "首次给药前14天内接受系统性类固醇治疗且经研究者判定治疗期间需要长期使用系统性类固醇治疗的受试者；",
      "Version": 1.0,
      "flag": "Y"
    },
    {
      "CT/CodelistID": "IETESTCD",
      "CT/Codelist Name": "入选/排除标准简称",
      "Data Type": "Char",
      "cdnum": 22,
      "Term Decoded": "EXCL13",
      "Term  Dictionaries": "首次给药前28天内参加过任何其他干预性临床试验；",
      "Version": 1.0,
      "flag": "Y"
    },
    {
      "CT/CodelistID": "IETESTCD",
      "CT/Codelist Name": "入选/排除标准简称",
      "Data Type": "Char",
      "cdnum": 23,
      "Term Decoded": "EXCL14",
      "Term  Dictionaries": "首次给药前28天内接受过输血和/或集落刺激因子相关治疗；",
      "Version": 1.0,
      "flag": "Y"
    },
    {
      "CT/CodelistID": "IETESTCD",
      "CT/Codelist Name": "入选/排除标准简称",
      "Data Type": "Char",
      "cdnum": 24,
      "Term Decoded": "EXCL15",
      "Term  Dictionaries": "首次给药前28天内接受过重大外科和/或抗肿瘤治疗，且未能从这些干预措施的毒性中恢复者，脱发除外；",
      "Version": 1.0,
      "flag": "Y"
    },
    {
      "CT/CodelistID": "IETESTCD",
      "CT/Codelist Name": "入选/排除标准简称",
      "Data Type": "Char",
      "cdnum": 25,
      "Term Decoded": "EXCL16",
      "Term  Dictionaries": "备孕期、妊娠期、哺乳期女性；",
      "Version": 1.0,
      "flag": "Y"
    },
    {
      "CT/CodelistID": "IETESTCD",
      "CT/Codelist Name": "入选/排除标准简称",
      "Data Type": "Char",
      "cdnum": 26,
      "Term Decoded": "EXCL17",
      "Term  Dictionaries": "研究者认为可能增加受试者风险或干扰试验结果的其他任何情况，认为不适宜进入本项试验者。",
      "Version": 1.0,
      "flag": "Y"
    },
    {
      "CT/CodelistID": "IETESTCD",
      "CT/Codelist Name": "入选/排除标准简称",
      "Data Type": "Char",
      "cdnum": 27,
      "Term Decoded": "INCL05",
      "Term  Dictionaries": "有适宜的器官以及造血功能，根据以下实验室检查，无严重的器官功能异常：",
      "Version": 2.3,
      "flag": "Y"
    },
    {
      "CT/CodelistID": "ISCAT",
      "CT/Codelist Name": "IS类别",
      "Data Type": "Char",
      "cdnum": 1,
      "Term Decoded": "ANALYTE",
      "Term  Dictionaries": NaN,
      "Version": NaN,
      "flag": NaN
    },
    {
      "CT/CodelistID": "ISTEST",
      "CT/Codelist Name": "IS检测项名称",
      "Data Type": "Char",
      "cdnum": 1,
      "Term Decoded": "抗MR001抗体",
      "Term  Dictionaries": NaN,
      "Version": NaN,
      "flag": NaN
    },
    {
      "CT/CodelistID": "ISTEST",
      "CT/Codelist Name": "IS检测项名称",
      "Data Type": "Char",
      "cdnum": 2,
      "Term Decoded": "滴度",
      "Term  Dictionaries": NaN,
      "Version": NaN,
      "flag": NaN
    },
    {
      "CT/CodelistID": "ISTESTCD",
      "CT/Codelist Name": "IS检测项简称",
      "Data Type": "Char",
      "cdnum": 1,
      "Term Decoded": "ANTI",
      "Term  Dictionaries": "抗MR001抗体",
      "Version": NaN,
      "flag": NaN
    },
    {
      "CT/CodelistID": "ISTESTCD",
      "CT/Codelist Name": "IS检测项简称",
      "Data Type": "Char",
      "cdnum": 2,
      "Term Decoded": "TITRE",
      "Term  Dictionaries": "滴度",
      "Version": NaN,
      "flag": NaN
    },
    {
      "CT/CodelistID": "LBCAT",
      "CT/Codelist Name": "类别",
      "Data Type": "Char",
      "cdnum": 1,
      "Term Decoded": "T细胞亚群",
      "Term  Dictionaries": NaN,
      "Version": NaN,
      "flag": NaN
    },
    {
      "CT/CodelistID": "LBCAT",
      "CT/Codelist Name": "类别",
      "Data Type": "Char",
      "cdnum": 2,
      "Term Decoded": "便常规",
      "Term  Dictionaries": NaN,
      "Version": NaN,
      "flag": NaN
    },
    {
      "CT/CodelistID": "LBCAT",
      "CT/Codelist Name": "类别",
      "Data Type": "Char",
      "cdnum": 3,
      "Term Decoded": "超声检查",
      "Term  Dictionaries": NaN,
      "Version": NaN,
      "flag": NaN
    },
    {
      "CT/CodelistID": "LBCAT",
      "CT/Codelist Name": "类别",
      "Data Type": "Char",
      "cdnum": 4,
      "Term Decoded": "激素检查",
      "Term  Dictionaries": NaN,
      "Version": NaN,
      "flag": NaN
    },
    {
      "CT/CodelistID": "LBCAT",
      "CT/Codelist Name": "类别",
      "Data Type": "Char",
      "cdnum": 5,
      "Term Decoded": "甲状腺功能",
      "Term  Dictionaries": NaN,
      "Version": NaN,
      "flag": NaN
    },
    {
      "CT/CodelistID": "LBCAT",
      "CT/Codelist Name": "类别",
      "Data Type": "Char",
      "cdnum": 6,
      "Term Decoded": "检验",
      "Term  Dictionaries": NaN,
      "Version": NaN,
      "flag": NaN
    },
    {
      "CT/CodelistID": "LBCAT",
      "CT/Codelist Name": "类别",
      "Data Type": "Char",
      "cdnum": 7,
      "Term Decoded": "尿常规",
      "Term  Dictionaries": NaN,
      "Version": NaN,
      "flag": NaN
    },
    {
      "CT/CodelistID": "LBCAT",
      "CT/Codelist Name": "类别",
      "Data Type": "Char",
      "cdnum": 8,
      "Term Decoded": "凝血功能",
      "Term  Dictionaries": NaN,
      "Version": NaN,
      "flag": NaN
    },
    {
      "CT/CodelistID": "LBCAT",
      "CT/Codelist Name": "类别",
      "Data Type": "Char",
      "cdnum": 9,
      "Term Decoded": "其他计划外检查",
      "Term  Dictionaries": NaN,
      "Version": NaN,
      "flag": NaN
    },
    {
      "CT/CodelistID": "LBCAT",
      "CT/Codelist Name": "类别",
      "Data Type": "Char",
      "cdnum": 10,
      "Term Decoded": "妊娠检查",
      "Term  Dictionaries": NaN,
      "Version": NaN,
      "flag": NaN
    },
    {
      "CT/CodelistID": "LBCAT",
      "CT/Codelist Name": "类别",
      "Data Type": "Char",
      "cdnum": 11,
      "Term Decoded": "输血四项",
      "Term  Dictionaries": NaN,
      "Version": NaN,
      "flag": NaN
    },
    {
      "CT/CodelistID": "LBCAT",
      "CT/Codelist Name": "类别",
      "Data Type": "Char",
      "cdnum": 12,
      "Term Decoded": "心肌酶谱",
      "Term  Dictionaries": NaN,
      "Version": NaN,
      "flag": NaN
    },
    {
      "CT/CodelistID": "LBCAT",
      "CT/Codelist Name": "类别",
      "Data Type": "Char",
      "cdnum": 13,
      "Term Decoded": "心脏超声",
      "Term  Dictionaries": NaN,
      "Version": NaN,
      "flag": NaN
    },
    {
      "CT/CodelistID": "LBCAT",
      "CT/Codelist Name": "类别",
      "Data Type": "Char",
      "cdnum": 14,
      "Term Decoded": "血常规",
      "Term  Dictionaries": NaN,
      "Version": NaN,
      "flag": NaN
    },
    {
      "CT/CodelistID": "LBCAT",
      "CT/Codelist Name": "类别",
      "Data Type": "Char",
      "cdnum": 15,
      "Term Decoded": "血生化",
      "Term  Dictionaries": NaN,
      "Version": NaN,
      "flag": NaN
    },
    {
      "CT/CodelistID": "LBCAT",
      "CT/Codelist Name": "类别",
      "Data Type": "Char",
      "cdnum": 16,
      "Term Decoded": "影像学检查",
      "Term  Dictionaries": NaN,
      "Version": NaN,
      "flag": NaN
    },
    {
      "CT/CodelistID": "LBTEST",
      "CT/Codelist Name": "LB Test or Examination",
      "Data Type": "Char",
      "cdnum": 1,
      "Term Decoded": "颈部",
      "Term  Dictionaries": NaN,
      "Version": NaN,
      "flag": NaN
    },
    {
      "CT/CodelistID": "LBTEST",
      "CT/Codelist Name": "LB Test or Examination",
      "Data Type": "Char",
      "cdnum": 2,
      "Term Decoded": "胸部",
      "Term  Dictionaries": NaN,
      "Version": NaN,
      "flag": NaN
    },
    {
      "CT/CodelistID": "LBTEST",
      "CT/Codelist Name": "LB Test or Examination",
      "Data Type": "Char",
      "cdnum": 3,
      "Term Decoded": "腹部",
      "Term  Dictionaries": NaN,
      "Version": NaN,
      "flag": NaN
    },
    {
      "CT/CodelistID": "LBTEST",
      "CT/Codelist Name": "LB Test or Examination",
      "Data Type": "Char",
      "cdnum": 4,
      "Term Decoded": "盆部",
      "Term  Dictionaries": NaN,
      "Version": NaN,
      "flag": NaN
    },
    {
      "CT/CodelistID": "LBTEST",
      "CT/Codelist Name": "LB Test or Examination",
      "Data Type": "Char",
      "cdnum": 5,
      "Term Decoded": "其他部位",
      "Term  Dictionaries": NaN,
      "Version": NaN,
      "flag": NaN
    },
    {
      "CT/CodelistID": "LBTEST",
      "CT/Codelist Name": "LB Test or Examination",
      "Data Type": "Char",
      "cdnum": 6,
      "Term Decoded": "血妊娠",
      "Term  Dictionaries": NaN,
      "Version": NaN,
      "flag": NaN
    },
    {
      "CT/CodelistID": "LBTEST",
      "CT/Codelist Name": "LB Test or Examination",
      "Data Type": "Char",
      "cdnum": 7,
      "Term Decoded": "乙肝病毒表面抗原",
      "Term  Dictionaries": NaN,
      "Version": NaN,
      "flag": NaN
    },
    {
      "CT/CodelistID": "LBTEST",
      "CT/Codelist Name": "LB Test or Examination",
      "Data Type": "Char",
      "cdnum": 8,
      "Term Decoded": "乙肝核心抗体",
      "Term  Dictionaries": NaN,
      "Version": NaN,
      "flag": NaN
    },
    {
      "CT/CodelistID": "LBTEST",
      "CT/Codelist Name": "LB Test or Examination",
      "Data Type": "Char",
      "cdnum": 9,
      "Term Decoded": "丙肝抗体",
      "Term  Dictionaries": NaN,
      "Version": NaN,
      "flag": NaN
    },
    {
      "CT/CodelistID": "LBTEST",
      "CT/Codelist Name": "LB Test or Examination",
      "Data Type": "Char",
      "cdnum": 10,
      "Term Decoded": "HIV抗体",
      "Term  Dictionaries": NaN,
      "Version": NaN,
      "flag": NaN
    },
    {
      "CT/CodelistID": "LBTEST",
      "CT/Codelist Name": "LB Test or Examination",
      "Data Type": "Char",
      "cdnum": 11,
      "Term Decoded": "梅毒特异性抗体",
      "Term  Dictionaries": NaN,
      "Version": NaN,
      "flag": NaN
    },
    {
      "CT/CodelistID": "LBTEST",
      "CT/Codelist Name": "LB Test or Examination",
      "Data Type": "Char",
      "cdnum": 12,
      "Term Decoded": "白细胞计数（WBC）",
      "Term  Dictionaries": NaN,
      "Version": NaN,
      "flag": NaN
    },
    {
      "CT/CodelistID": "LBTEST",
      "CT/Codelist Name": "LB Test or Examination",
      "Data Type": "Char",
      "cdnum": 13,
      "Term Decoded": "红细胞计数（RBC）",
      "Term  Dictionaries": NaN,
      "Version": NaN,
      "flag": NaN
    },
    {
      "CT/CodelistID": "LBTEST",
      "CT/Codelist Name": "LB Test or Examination",
      "Data Type": "Char",
      "cdnum": 14,
      "Term Decoded": "血红蛋白（Hb）",
      "Term  Dictionaries": NaN,
      "Version": NaN,
      "flag": NaN
    },
    {
      "CT/CodelistID": "LBTEST",
      "CT/Codelist Name": "LB Test or Examination",
      "Data Type": "Char",
      "cdnum": 15,
      "Term Decoded": "中性粒细胞计数（NEUT）",
      "Term  Dictionaries": NaN,
      "Version": NaN,
      "flag": NaN
    },
    {
      "CT/CodelistID": "LBTEST",
      "CT/Codelist Name": "LB Test or Examination",
      "Data Type": "Char",
      "cdnum": 16,
      "Term Decoded": "血小板计数（PLT）",
      "Term  Dictionaries": NaN,
      "Version": NaN,
      "flag": NaN
    },
    {
      "CT/CodelistID": "LBTEST",
      "CT/Codelist Name": "LB Test or Examination",
      "Data Type": "Char",
      "cdnum": 17,
      "Term Decoded": "淋巴细胞计数（LY）",
      "Term  Dictionaries": NaN,
      "Version": NaN,
      "flag": NaN
    },
    {
      "CT/CodelistID": "LBTEST",
      "CT/Codelist Name": "LB Test or Examination",
      "Data Type": "Char",
      "cdnum": 18,
      "Term Decoded": "中性粒细胞百分比（N%）",
      "Term  Dictionaries": NaN,
      "Version": NaN,
      "flag": NaN
    },
    {
      "CT/CodelistID": "LBTEST",
      "CT/Codelist Name": "LB Test or Examination",
      "Data Type": "Char",
      "cdnum": 19,
      "Term Decoded": "淋巴细胞百分比（L%）",
      "Term  Dictionaries": NaN,
      "Version": NaN,
      "flag": NaN
    },
    {
      "CT/CodelistID": "LBTEST",
      "CT/Codelist Name": "LB Test or Examination",
      "Data Type": "Char",
      "cdnum": 20,
      "Term Decoded": "单核细胞百分比（M%）",
      "Term  Dictionaries": NaN,
      "Version": NaN,
      "flag": NaN
    },
    {
      "CT/CodelistID": "LBTEST",
      "CT/Codelist Name": "LB Test or Examination",
      "Data Type": "Char",
      "cdnum": 21,
      "Term Decoded": "嗜酸性粒细胞百分比（EO%）",
      "Term  Dictionaries": NaN,
      "Version": NaN,
      "flag": NaN
    },
    {
      "CT/CodelistID": "LBTEST",
      "CT/Codelist Name": "LB Test or Examination",
      "Data Type": "Char",
      "cdnum": 22,
      "Term Decoded": "嗜碱性粒细胞百分比（BASO%）",
      "Term  Dictionaries": NaN,
      "Version": NaN,
      "flag": NaN
    },
    {
      "CT/CodelistID": "LBTEST",
      "CT/Codelist Name": "LB Test or Examination",
      "Data Type": "Char",
      "cdnum": 23,
      "Term Decoded": "白细胞",
      "Term  Dictionaries": NaN,
      "Version": NaN,
      "flag": NaN
    },
    {
      "CT/CodelistID": "LBTEST",
      "CT/Codelist Name": "LB Test or Examination",
      "Data Type": "Char",
      "cdnum": 24,
      "Term Decoded": "红细胞",
      "Term  Dictionaries": NaN,
      "Version": NaN,
      "flag": NaN
    },
    {
      "CT/CodelistID": "LBTEST",
      "CT/Codelist Name": "LB Test or Examination",
      "Data Type": "Char",
      "cdnum": 25,
      "Term Decoded": "尿蛋白（PRO）",
      "Term  Dictionaries": NaN,
      "Version": NaN,
      "flag": NaN
    },
    {
      "CT/CodelistID": "LBTEST",
      "CT/Codelist Name": "LB Test or Examination",
      "Data Type": "Char",
      "cdnum": 26,
      "Term Decoded": "尿酮体（KET）",
      "Term  Dictionaries": NaN,
      "Version": NaN,
      "flag": NaN
    },
    {
      "CT/CodelistID": "LBTEST",
      "CT/Codelist Name": "LB Test or Examination",
      "Data Type": "Char",
      "cdnum": 27,
      "Term Decoded": "尿糖（GLU）",
      "Term  Dictionaries": NaN,
      "Version": NaN,
      "flag": NaN
    },
    {
      "CT/CodelistID": "LBTEST",
      "CT/Codelist Name": "LB Test or Examination",
      "Data Type": "Char",
      "cdnum": 28,
      "Term Decoded": "尿酸碱度（pH）",
      "Term  Dictionaries": NaN,
      "Version": NaN,
      "flag": NaN
    },
    {
      "CT/CodelistID": "LBTEST",
      "CT/Codelist Name": "LB Test or Examination",
      "Data Type": "Char",
      "cdnum": 29,
      "Term Decoded": "便红细胞",
      "Term  Dictionaries": NaN,
      "Version": NaN,
      "flag": NaN
    },
    {
      "CT/CodelistID": "LBTEST",
      "CT/Codelist Name": "LB Test or Examination",
      "Data Type": "Char",
      "cdnum": 30,
      "Term Decoded": "便白细胞",
      "Term  Dictionaries": NaN,
      "Version": NaN,
      "flag": NaN
    },
    {
      "CT/CodelistID": "LBTEST",
      "CT/Codelist Name": "LB Test or Examination",
      "Data Type": "Char",
      "cdnum": 31,
      "Term Decoded": "隐血",
      "Term  Dictionaries": NaN,
      "Version": NaN,
      "flag": NaN
    },
    {
      "CT/CodelistID": "LBTEST",
      "CT/Codelist Name": "LB Test or Examination",
      "Data Type": "Char",
      "cdnum": 32,
      "Term Decoded": "丙氨酸氨基转移酶（ALT）",
      "Term  Dictionaries": NaN,
      "Version": NaN,
      "flag": NaN
    },
    {
      "CT/CodelistID": "LBTEST",
      "CT/Codelist Name": "LB Test or Examination",
      "Data Type": "Char",
      "cdnum": 33,
      "Term Decoded": "门冬氨酸氨基转移酶（AST）",
      "Term  Dictionaries": NaN,
      "Version": NaN,
      "flag": NaN
    },
    {
      "CT/CodelistID": "LBTEST",
      "CT/Codelist Name": "LB Test or Examination",
      "Data Type": "Char",
      "cdnum": 34,
      "Term Decoded": "碱性磷酸酶（ALP）",
      "Term  Dictionaries": NaN,
      "Version": NaN,
      "flag": NaN
    },
    {
      "CT/CodelistID": "LBTEST",
      "CT/Codelist Name": "LB Test or Examination",
      "Data Type": "Char",
      "cdnum": 35,
      "Term Decoded": "γ-谷氨酰转移酶（GGT）",
      "Term  Dictionaries": NaN,
      "Version": NaN,
      "flag": NaN
    },
    {
      "CT/CodelistID": "LBTEST",
      "CT/Codelist Name": "LB Test or Examination",
      "Data Type": "Char",
      "cdnum": 36,
      "Term Decoded": "空腹葡萄糖（GLU）",
      "Term  Dictionaries": NaN,
      "Version": NaN,
      "flag": NaN
    },
    {
      "CT/CodelistID": "LBTEST",
      "CT/Codelist Name": "LB Test or Examination",
      "Data Type": "Char",
      "cdnum": 37,
      "Term Decoded": "尿素（UREA）",
      "Term  Dictionaries": NaN,
      "Version": NaN,
      "flag": NaN
    },
    {
      "CT/CodelistID": "LBTEST",
      "CT/Codelist Name": "LB Test or Examination",
      "Data Type": "Char",
      "cdnum": 38,
      "Term Decoded": "尿素氮（BUN）",
      "Term  Dictionaries": NaN,
      "Version": NaN,
      "flag": NaN
    },
    {
      "CT/CodelistID": "LBTEST",
      "CT/Codelist Name": "LB Test or Examination",
      "Data Type": "Char",
      "cdnum": 39,
      "Term Decoded": "总胆红素（TBIL）",
      "Term  Dictionaries": NaN,
      "Version": NaN,
      "flag": NaN
    },
    {
      "CT/CodelistID": "LBTEST",
      "CT/Codelist Name": "LB Test or Examination",
      "Data Type": "Char",
      "cdnum": 40,
      "Term Decoded": "直接胆红素（DBIL）",
      "Term  Dictionaries": NaN,
      "Version": NaN,
      "flag": NaN
    },
    {
      "CT/CodelistID": "LBTEST",
      "CT/Codelist Name": "LB Test or Examination",
      "Data Type": "Char",
      "cdnum": 41,
      "Term Decoded": "血肌酐（CREA）",
      "Term  Dictionaries": NaN,
      "Version": NaN,
      "flag": NaN
    },
    {
      "CT/CodelistID": "LBTEST",
      "CT/Codelist Name": "LB Test or Examination",
      "Data Type": "Char",
      "cdnum": 42,
      "Term Decoded": "总蛋白（TP）",
      "Term  Dictionaries": NaN,
      "Version": NaN,
      "flag": NaN
    },
    {
      "CT/CodelistID": "LBTEST",
      "CT/Codelist Name": "LB Test or Examination",
      "Data Type": "Char",
      "cdnum": 43,
      "Term Decoded": "白蛋白（ALB）",
      "Term  Dictionaries": NaN,
      "Version": NaN,
      "flag": NaN
    },
    {
      "CT/CodelistID": "LBTEST",
      "CT/Codelist Name": "LB Test or Examination",
      "Data Type": "Char",
      "cdnum": 44,
      "Term Decoded": "总胆固醇（TCHO）",
      "Term  Dictionaries": NaN,
      "Version": NaN,
      "flag": NaN
    },
    {
      "CT/CodelistID": "LBTEST",
      "CT/Codelist Name": "LB Test or Examination",
      "Data Type": "Char",
      "cdnum": 45,
      "Term Decoded": "甘油三酯（TG）",
      "Term  Dictionaries": NaN,
      "Version": NaN,
      "flag": NaN
    },
    {
      "CT/CodelistID": "LBTEST",
      "CT/Codelist Name": "LB Test or Examination",
      "Data Type": "Char",
      "cdnum": 46,
      "Term Decoded": "低密度脂蛋白(LDLC)",
      "Term  Dictionaries": NaN,
      "Version": NaN,
      "flag": NaN
    },
    {
      "CT/CodelistID": "LBTEST",
      "CT/Codelist Name": "LB Test or Examination",
      "Data Type": "Char",
      "cdnum": 47,
      "Term Decoded": "高密度脂蛋白(HDLC)",
      "Term  Dictionaries": NaN,
      "Version": NaN,
      "flag": NaN
    },
    {
      "CT/CodelistID": "LBTEST",
      "CT/Codelist Name": "LB Test or Examination",
      "Data Type": "Char",
      "cdnum": 48,
      "Term Decoded": "钠（Na）",
      "Term  Dictionaries": NaN,
      "Version": NaN,
      "flag": NaN
    },
    {
      "CT/CodelistID": "LBTEST",
      "CT/Codelist Name": "LB Test or Examination",
      "Data Type": "Char",
      "cdnum": 49,
      "Term Decoded": "钾（K）",
      "Term  Dictionaries": NaN,
      "Version": NaN,
      "flag": NaN
    },
    {
      "CT/CodelistID": "LBTEST",
      "CT/Codelist Name": "LB Test or Examination",
      "Data Type": "Char",
      "cdnum": 50,
      "Term Decoded": "钙（Ca2）",
      "Term  Dictionaries": NaN,
      "Version": NaN,
      "flag": NaN
    },
    {
      "CT/CodelistID": "LBTEST",
      "CT/Codelist Name": "LB Test or Examination",
      "Data Type": "Char",
      "cdnum": 51,
      "Term Decoded": "氯（Cl）",
      "Term  Dictionaries": NaN,
      "Version": NaN,
      "flag": NaN
    },
    {
      "CT/CodelistID": "LBTEST",
      "CT/Codelist Name": "LB Test or Examination",
      "Data Type": "Char",
      "cdnum": 52,
      "Term Decoded": "总二氧化碳（TCO2）",
      "Term  Dictionaries": NaN,
      "Version": NaN,
      "flag": NaN
    },
    {
      "CT/CodelistID": "LBTEST",
      "CT/Codelist Name": "LB Test or Examination",
      "Data Type": "Char",
      "cdnum": 53,
      "Term Decoded": "乳酸脱氢酶（LDH）",
      "Term  Dictionaries": NaN,
      "Version": NaN,
      "flag": NaN
    },
    {
      "CT/CodelistID": "LBTEST",
      "CT/Codelist Name": "LB Test or Examination",
      "Data Type": "Char",
      "cdnum": 54,
      "Term Decoded": "肌酸激酶（CK）",
      "Term  Dictionaries": NaN,
      "Version": NaN,
      "flag": NaN
    },
    {
      "CT/CodelistID": "LBTEST",
      "CT/Codelist Name": "LB Test or Examination",
      "Data Type": "Char",
      "cdnum": 55,
      "Term Decoded": "尿酸（UA）",
      "Term  Dictionaries": NaN,
      "Version": NaN,
      "flag": NaN
    },
    {
      "CT/CodelistID": "LBTEST",
      "CT/Codelist Name": "LB Test or Examination",
      "Data Type": "Char",
      "cdnum": 56,
      "Term Decoded": "血生化肌酸激酶同工酶（CK-MB）",
      "Term  Dictionaries": NaN,
      "Version": NaN,
      "flag": NaN
    },
    {
      "CT/CodelistID": "LBTEST",
      "CT/Codelist Name": "LB Test or Examination",
      "Data Type": "Char",
      "cdnum": 57,
      "Term Decoded": "凝血酶原时间（PT）",
      "Term  Dictionaries": NaN,
      "Version": NaN,
      "flag": NaN
    },
    {
      "CT/CodelistID": "LBTEST",
      "CT/Codelist Name": "LB Test or Examination",
      "Data Type": "Char",
      "cdnum": 58,
      "Term Decoded": "活化部分凝血活酶时间（APTT）",
      "Term  Dictionaries": NaN,
      "Version": NaN,
      "flag": NaN
    },
    {
      "CT/CodelistID": "LBTEST",
      "CT/Codelist Name": "LB Test or Examination",
      "Data Type": "Char",
      "cdnum": 59,
      "Term Decoded": "国际标准化比值（INR）",
      "Term  Dictionaries": NaN,
      "Version": NaN,
      "flag": NaN
    },
    {
      "CT/CodelistID": "LBTEST",
      "CT/Codelist Name": "LB Test or Examination",
      "Data Type": "Char",
      "cdnum": 60,
      "Term Decoded": "心肌酶谱肌酸激酶同工酶（CK-MB）",
      "Term  Dictionaries": NaN,
      "Version": NaN,
      "flag": NaN
    },
    {
      "CT/CodelistID": "LBTEST",
      "CT/Codelist Name": "LB Test or Examination",
      "Data Type": "Char",
      "cdnum": 61,
      "Term Decoded": "肌红蛋白",
      "Term  Dictionaries": NaN,
      "Version": NaN,
      "flag": NaN
    },
    {
      "CT/CodelistID": "LBTEST",
      "CT/Codelist Name": "LB Test or Examination",
      "Data Type": "Char",
      "cdnum": 62,
      "Term Decoded": "肌钙蛋白T/I",
      "Term  Dictionaries": NaN,
      "Version": NaN,
      "flag": NaN
    },
    {
      "CT/CodelistID": "LBTEST",
      "CT/Codelist Name": "LB Test or Examination",
      "Data Type": "Char",
      "cdnum": 63,
      "Term Decoded": "血清游离三碘甲腺原氨酸（FT3）",
      "Term  Dictionaries": NaN,
      "Version": NaN,
      "flag": NaN
    },
    {
      "CT/CodelistID": "LBTEST",
      "CT/Codelist Name": "LB Test or Examination",
      "Data Type": "Char",
      "cdnum": 64,
      "Term Decoded": "血清游离甲状腺素（FT4）",
      "Term  Dictionaries": NaN,
      "Version": NaN,
      "flag": NaN
    },
    {
      "CT/CodelistID": "LBTEST",
      "CT/Codelist Name": "LB Test or Examination",
      "Data Type": "Char",
      "cdnum": 65,
      "Term Decoded": "促甲状腺激素（TSH）",
      "Term  Dictionaries": NaN,
      "Version": NaN,
      "flag": NaN
    },
    {
      "CT/CodelistID": "LBTEST",
      "CT/Codelist Name": "LB Test or Examination",
      "Data Type": "Char",
      "cdnum": 66,
      "Term Decoded": "CD4",
      "Term  Dictionaries": NaN,
      "Version": NaN,
      "flag": NaN
    },
    {
      "CT/CodelistID": "LBTEST",
      "CT/Codelist Name": "LB Test or Examination",
      "Data Type": "Char",
      "cdnum": 67,
      "Term Decoded": "CD8",
      "Term  Dictionaries": NaN,
      "Version": NaN,
      "flag": NaN
    },
    {
      "CT/CodelistID": "LBTEST",
      "CT/Codelist Name": "LB Test or Examination",
      "Data Type": "Char",
      "cdnum": 68,
      "Term Decoded": "CD4/CD8",
      "Term  Dictionaries": NaN,
      "Version": NaN,
      "flag": NaN
    },
    {
      "CT/CodelistID": "LBTEST",
      "CT/Codelist Name": "LB Test or Examination",
      "Data Type": "Char",
      "cdnum": 69,
      "Term Decoded": "心脏超声",
      "Term  Dictionaries": NaN,
      "Version": NaN,
      "flag": NaN
    },
    {
      "CT/CodelistID": "LBTEST",
      "CT/Codelist Name": "LB Test or Examination",
      "Data Type": "Char",
      "cdnum": 70,
      "Term Decoded": "双侧下肢静脉彩超",
      "Term  Dictionaries": NaN,
      "Version": NaN,
      "flag": NaN
    },
    {
      "CT/CodelistID": "LBTEST",
      "CT/Codelist Name": "LB Test or Examination",
      "Data Type": "Char",
      "cdnum": 71,
      "Term Decoded": "尿常规_尿红细胞形态信息",
      "Term  Dictionaries": NaN,
      "Version": NaN,
      "flag": NaN
    },
    {
      "CT/CodelistID": "LBTEST",
      "CT/Codelist Name": "LB Test or Examination",
      "Data Type": "Char",
      "cdnum": 72,
      "Term Decoded": "尿常规_尿结晶",
      "Term  Dictionaries": NaN,
      "Version": NaN,
      "flag": NaN
    },
    {
      "CT/CodelistID": "LBTEST",
      "CT/Codelist Name": "LB Test or Examination",
      "Data Type": "Char",
      "cdnum": 73,
      "Term Decoded": "凝血功能_D-二聚体测定",
      "Term  Dictionaries": NaN,
      "Version": NaN,
      "flag": NaN
    },
    {
      "CT/CodelistID": "LBTEST",
      "CT/Codelist Name": "LB Test or Examination",
      "Data Type": "Char",
      "cdnum": 74,
      "Term Decoded": "血常规_红细胞容积",
      "Term  Dictionaries": NaN,
      "Version": NaN,
      "flag": NaN
    },
    {
      "CT/CodelistID": "LBTEST",
      "CT/Codelist Name": "LB Test or Examination",
      "Data Type": "Char",
      "cdnum": 75,
      "Term Decoded": "无机磷",
      "Term  Dictionaries": NaN,
      "Version": NaN,
      "flag": NaN
    },
    {
      "CT/CodelistID": "LBTEST",
      "CT/Codelist Name": "LB Test or Examination",
      "Data Type": "Char",
      "cdnum": 76,
      "Term Decoded": "浅表淋巴结彩色多普勒超声检查",
      "Term  Dictionaries": NaN,
      "Version": NaN,
      "flag": NaN
    },
    {
      "CT/CodelistID": "LBTEST",
      "CT/Codelist Name": "LB Test or Examination",
      "Data Type": "Char",
      "cdnum": 77,
      "Term Decoded": "促卵泡生成素",
      "Term  Dictionaries": NaN,
      "Version": NaN,
      "flag": NaN
    },
    {
      "CT/CodelistID": "LBTEST",
      "CT/Codelist Name": "LB Test or Examination",
      "Data Type": "Char",
      "cdnum": 78,
      "Term Decoded": "雌二醇",
      "Term  Dictionaries": NaN,
      "Version": NaN,
      "flag": NaN
    },
    {
      "CT/CodelistID": "LBTEST",
      "CT/Codelist Name": "LB Test or Examination",
      "Data Type": "Char",
      "cdnum": 79,
      "Term Decoded": "垂体泌乳素",
      "Term  Dictionaries": NaN,
      "Version": NaN,
      "flag": NaN
    },
    {
      "CT/CodelistID": "LBTEST",
      "CT/Codelist Name": "LB Test or Examination",
      "Data Type": "Char",
      "cdnum": 80,
      "Term Decoded": "孕酮",
      "Term  Dictionaries": NaN,
      "Version": NaN,
      "flag": NaN
    },
    {
      "CT/CodelistID": "LBTEST",
      "CT/Codelist Name": "LB Test or Examination",
      "Data Type": "Char",
      "cdnum": 81,
      "Term Decoded": "睾酮",
      "Term  Dictionaries": NaN,
      "Version": NaN,
      "flag": NaN
    },
    {
      "CT/CodelistID": "LBTEST",
      "CT/Codelist Name": "LB Test or Examination",
      "Data Type": "Char",
      "cdnum": 82,
      "Term Decoded": "促黄体生成素",
      "Term  Dictionaries": NaN,
      "Version": NaN,
      "flag": NaN
    },
    {
      "CT/CodelistID": "LBTEST",
      "CT/Codelist Name": "LB Test or Examination",
      "Data Type": "Char",
      "cdnum": 83,
      "Term Decoded": "β-人绒毛膜促性腺激素",
      "Term  Dictionaries": NaN,
      "Version": NaN,
      "flag": NaN
    },
    {
      "CT/CodelistID": "LBTEST",
      "CT/Codelist Name": "LB Test or Examination",
      "Data Type": "Char",
      "cdnum": 84,
      "Term Decoded": "白介素-10",
      "Term  Dictionaries": NaN,
      "Version": NaN,
      "flag": NaN
    },
    {
      "CT/CodelistID": "LBTEST",
      "CT/Codelist Name": "LB Test or Examination",
      "Data Type": "Char",
      "cdnum": 85,
      "Term Decoded": "尿常规_尿隐血",
      "Term  Dictionaries": NaN,
      "Version": NaN,
      "flag": NaN
    },
    {
      "CT/CodelistID": "LBTEST",
      "CT/Codelist Name": "LB Test or Examination",
      "Data Type": "Char",
      "cdnum": 86,
      "Term Decoded": "白介素-12",
      "Term  Dictionaries": NaN,
      "Version": NaN,
      "flag": NaN
    },
    {
      "CT/CodelistID": "LBTEST",
      "CT/Codelist Name": "LB Test or Examination",
      "Data Type": "Char",
      "cdnum": 87,
      "Term Decoded": "白介素-17A",
      "Term  Dictionaries": NaN,
      "Version": NaN,
      "flag": NaN
    },
    {
      "CT/CodelistID": "LBTEST",
      "CT/Codelist Name": "LB Test or Examination",
      "Data Type": "Char",
      "cdnum": 88,
      "Term Decoded": "白介素-1β",
      "Term  Dictionaries": NaN,
      "Version": NaN,
      "flag": NaN
    },
    {
      "CT/CodelistID": "LBTEST",
      "CT/Codelist Name": "LB Test or Examination",
      "Data Type": "Char",
      "cdnum": 89,
      "Term Decoded": "癌症抗原125",
      "Term  Dictionaries": NaN,
      "Version": NaN,
      "flag": NaN
    },
    {
      "CT/CodelistID": "LBTEST",
      "CT/Codelist Name": "LB Test or Examination",
      "Data Type": "Char",
      "cdnum": 90,
      "Term Decoded": "白介素-2",
      "Term  Dictionaries": NaN,
      "Version": NaN,
      "flag": NaN
    },
    {
      "CT/CodelistID": "LBTEST",
      "CT/Codelist Name": "LB Test or Examination",
      "Data Type": "Char",
      "cdnum": 91,
      "Term Decoded": "癌症抗原19-9",
      "Term  Dictionaries": NaN,
      "Version": NaN,
      "flag": NaN
    },
    {
      "CT/CodelistID": "LBTEST",
      "CT/Codelist Name": "LB Test or Examination",
      "Data Type": "Char",
      "cdnum": 92,
      "Term Decoded": "白介素-4",
      "Term  Dictionaries": NaN,
      "Version": NaN,
      "flag": NaN
    },
    {
      "CT/CodelistID": "LBTEST",
      "CT/Codelist Name": "LB Test or Examination",
      "Data Type": "Char",
      "cdnum": 93,
      "Term Decoded": "癌症抗原242",
      "Term  Dictionaries": NaN,
      "Version": NaN,
      "flag": NaN
    },
    {
      "CT/CodelistID": "LBTEST",
      "CT/Codelist Name": "LB Test or Examination",
      "Data Type": "Char",
      "cdnum": 94,
      "Term Decoded": "白介素-5",
      "Term  Dictionaries": NaN,
      "Version": NaN,
      "flag": NaN
    },
    {
      "CT/CodelistID": "LBTEST",
      "CT/Codelist Name": "LB Test or Examination",
      "Data Type": "Char",
      "cdnum": 95,
      "Term Decoded": "癌症抗原CA72-4",
      "Term  Dictionaries": NaN,
      "Version": NaN,
      "flag": NaN
    },
    {
      "CT/CodelistID": "LBTEST",
      "CT/Codelist Name": "LB Test or Examination",
      "Data Type": "Char",
      "cdnum": 96,
      "Term Decoded": "白介素-6",
      "Term  Dictionaries": NaN,
      "Version": NaN,
      "flag": NaN
    },
    {
      "CT/CodelistID": "LBTEST",
      "CT/Codelist Name": "LB Test or Examination",
      "Data Type": "Char",
      "cdnum": 97,
      "Term Decoded": "抗乙型肝炎病毒表面抗体",
      "Term  Dictionaries": NaN,
      "Version": NaN,
      "flag": NaN
    },
    {
      "CT/CodelistID": "LBTEST",
      "CT/Codelist Name": "LB Test or Examination",
      "Data Type": "Char",
      "cdnum": 98,
      "Term Decoded": "白介素-8",
      "Term  Dictionaries": NaN,
      "Version": NaN,
      "flag": NaN
    },
    {
      "CT/CodelistID": "LBTEST",
      "CT/Codelist Name": "LB Test or Examination",
      "Data Type": "Char",
      "cdnum": 99,
      "Term Decoded": "红细胞计数",
      "Term  Dictionaries": NaN,
      "Version": NaN,
      "flag": NaN
    },
    {
      "CT/CodelistID": "LBTEST",
      "CT/Codelist Name": "LB Test or Examination",
      "Data Type": "Char",
      "cdnum": 100,
      "Term Decoded": "促肾上腺皮质激素",
      "Term  Dictionaries": NaN,
      "Version": NaN,
      "flag": NaN
    },
    {
      "CT/CodelistID": "LBTEST",
      "CT/Codelist Name": "LB Test or Examination",
      "Data Type": "Char",
      "cdnum": 101,
      "Term Decoded": "血红蛋白浓度(比色法)",
      "Term  Dictionaries": NaN,
      "Version": NaN,
      "flag": NaN
    },
    {
      "CT/CodelistID": "LBTEST",
      "CT/Codelist Name": "LB Test or Examination",
      "Data Type": "Char",
      "cdnum": 102,
      "Term Decoded": "干扰素-α",
      "Term  Dictionaries": NaN,
      "Version": NaN,
      "flag": NaN
    },
    {
      "CT/CodelistID": "LBTEST",
      "CT/Codelist Name": "LB Test or Examination",
      "Data Type": "Char",
      "cdnum": 103,
      "Term Decoded": "脂肪酶",
      "Term  Dictionaries": NaN,
      "Version": NaN,
      "flag": NaN
    },
    {
      "CT/CodelistID": "LBTEST",
      "CT/Codelist Name": "LB Test or Examination",
      "Data Type": "Char",
      "cdnum": 104,
      "Term Decoded": "干扰素-γ",
      "Term  Dictionaries": NaN,
      "Version": NaN,
      "flag": NaN
    },
    {
      "CT/CodelistID": "LBTEST",
      "CT/Codelist Name": "LB Test or Examination",
      "Data Type": "Char",
      "cdnum": 105,
      "Term Decoded": "皮质醇",
      "Term  Dictionaries": NaN,
      "Version": NaN,
      "flag": NaN
    },
    {
      "CT/CodelistID": "LBTEST",
      "CT/Codelist Name": "LB Test or Examination",
      "Data Type": "Char",
      "cdnum": 106,
      "Term Decoded": "铁蛋白",
      "Term  Dictionaries": NaN,
      "Version": NaN,
      "flag": NaN
    },
    {
      "CT/CodelistID": "LBTEST",
      "CT/Codelist Name": "LB Test or Examination",
      "Data Type": "Char",
      "cdnum": 107,
      "Term Decoded": "三碘甲状原氨酸",
      "Term  Dictionaries": NaN,
      "Version": NaN,
      "flag": NaN
    },
    {
      "CT/CodelistID": "LBTEST",
      "CT/Codelist Name": "LB Test or Examination",
      "Data Type": "Char",
      "cdnum": 108,
      "Term Decoded": "肿瘤坏死因子-α",
      "Term  Dictionaries": NaN,
      "Version": NaN,
      "flag": NaN
    },
    {
      "CT/CodelistID": "LBTEST",
      "CT/Codelist Name": "LB Test or Examination",
      "Data Type": "Char",
      "cdnum": 109,
      "Term Decoded": "游离三碘甲状原氨酸",
      "Term  Dictionaries": NaN,
      "Version": NaN,
      "flag": NaN
    },
    {
      "CT/CodelistID": "LBTEST",
      "CT/Codelist Name": "LB Test or Examination",
      "Data Type": "Char",
      "cdnum": 110,
      "Term Decoded": "尿胆红素",
      "Term  Dictionaries": NaN,
      "Version": NaN,
      "flag": NaN
    },
    {
      "CT/CodelistID": "LBTEST",
      "CT/Codelist Name": "LB Test or Examination",
      "Data Type": "Char",
      "cdnum": 111,
      "Term Decoded": "尿胆原",
      "Term  Dictionaries": NaN,
      "Version": NaN,
      "flag": NaN
    },
    {
      "CT/CodelistID": "LBTEST",
      "CT/Codelist Name": "LB Test or Examination",
      "Data Type": "Char",
      "cdnum": 112,
      "Term Decoded": "糖类抗原15-3",
      "Term  Dictionaries": NaN,
      "Version": NaN,
      "flag": NaN
    },
    {
      "CT/CodelistID": "LBTEST",
      "CT/Codelist Name": "LB Test or Examination",
      "Data Type": "Char",
      "cdnum": 113,
      "Term Decoded": "细胞角蛋白19片段",
      "Term  Dictionaries": NaN,
      "Version": NaN,
      "flag": NaN
    },
    {
      "CT/CodelistID": "LBTEST",
      "CT/Codelist Name": "LB Test or Examination",
      "Data Type": "Char",
      "cdnum": 114,
      "Term Decoded": "肿瘤二项_癌胚抗原",
      "Term  Dictionaries": NaN,
      "Version": NaN,
      "flag": NaN
    },
    {
      "CT/CodelistID": "LBTEST",
      "CT/Codelist Name": "LB Test or Examination",
      "Data Type": "Char",
      "cdnum": 115,
      "Term Decoded": "血红蛋白",
      "Term  Dictionaries": NaN,
      "Version": NaN,
      "flag": NaN
    },
    {
      "CT/CodelistID": "LBTEST",
      "CT/Codelist Name": "LB Test or Examination",
      "Data Type": "Char",
      "cdnum": 116,
      "Term Decoded": "白蛋白",
      "Term  Dictionaries": NaN,
      "Version": NaN,
      "flag": NaN
    },
    {
      "CT/CodelistID": "LBTEST",
      "CT/Codelist Name": "LB Test or Examination",
      "Data Type": "Char",
      "cdnum": 117,
      "Term Decoded": "非高密度脂蛋白胆固醇",
      "Term  Dictionaries": NaN,
      "Version": NaN,
      "flag": NaN
    },
    {
      "CT/CodelistID": "LBTEST",
      "CT/Codelist Name": "LB Test or Examination",
      "Data Type": "Char",
      "cdnum": 118,
      "Term Decoded": "间接胆红素",
      "Term  Dictionaries": NaN,
      "Version": NaN,
      "flag": NaN
    },
    {
      "CT/CodelistID": "LBTEST",
      "CT/Codelist Name": "LB Test or Examination",
      "Data Type": "Char",
      "cdnum": 119,
      "Term Decoded": "氯",
      "Term  Dictionaries": NaN,
      "Version": NaN,
      "flag": NaN
    },
    {
      "CT/CodelistID": "LBTEST",
      "CT/Codelist Name": "LB Test or Examination",
      "Data Type": "Char",
      "cdnum": 120,
      "Term Decoded": "镁离子（Mg）",
      "Term  Dictionaries": NaN,
      "Version": NaN,
      "flag": NaN
    },
    {
      "CT/CodelistID": "LBTEST",
      "CT/Codelist Name": "LB Test or Examination",
      "Data Type": "Char",
      "cdnum": 121,
      "Term Decoded": "钠",
      "Term  Dictionaries": NaN,
      "Version": NaN,
      "flag": NaN
    },
    {
      "CT/CodelistID": "LBTEST",
      "CT/Codelist Name": "LB Test or Examination",
      "Data Type": "Char",
      "cdnum": 122,
      "Term Decoded": "直接胆红素",
      "Term  Dictionaries": NaN,
      "Version": NaN,
      "flag": NaN
    },
    {
      "CT/CodelistID": "LBTEST",
      "CT/Codelist Name": "LB Test or Examination",
      "Data Type": "Char",
      "cdnum": 123,
      "Term Decoded": "总胆红素",
      "Term  Dictionaries": NaN,
      "Version": NaN,
      "flag": NaN
    },
    {
      "CT/CodelistID": "LBTEST",
      "CT/Codelist Name": "LB Test or Examination",
      "Data Type": "Char",
      "cdnum": 124,
      "Term Decoded": "乙肝病毒定量",
      "Term  Dictionaries": NaN,
      "Version": NaN,
      "flag": NaN
    },
    {
      "CT/CodelistID": "LBTEST",
      "CT/Codelist Name": "LB Test or Examination",
      "Data Type": "Char",
      "cdnum": 125,
      "Term Decoded": "低密度脂蛋白胆固醇",
      "Term  Dictionaries": NaN,
      "Version": NaN,
      "flag": NaN
    },
    {
      "CT/CodelistID": "LBTEST",
      "CT/Codelist Name": "LB Test or Examination",
      "Data Type": "Char",
      "cdnum": 126,
      "Term Decoded": "极低密度脂蛋白胆固醇",
      "Term  Dictionaries": NaN,
      "Version": NaN,
      "flag": NaN
    },
    {
      "CT/CodelistID": "LBTEST",
      "CT/Codelist Name": "LB Test or Examination",
      "Data Type": "Char",
      "cdnum": 127,
      "Term Decoded": "非高密度脂蛋白胆固醇(mg/dL)",
      "Term  Dictionaries": NaN,
      "Version": NaN,
      "flag": NaN
    },
    {
      "CT/CodelistID": "LBTEST",
      "CT/Codelist Name": "LB Test or Examination",
      "Data Type": "Char",
      "cdnum": 128,
      "Term Decoded": "极低密度脂蛋白胆固醇(mg/dL)",
      "Term  Dictionaries": NaN,
      "Version": NaN,
      "flag": NaN
    },
    {
      "CT/CodelistID": "LBTEST",
      "CT/Codelist Name": "LB Test or Examination",
      "Data Type": "Char",
      "cdnum": 129,
      "Term Decoded": "肝、胆、胰、脾彩超检查",
      "Term  Dictionaries": NaN,
      "Version": NaN,
      "flag": NaN
    },
    {
      "CT/CodelistID": "LBTEST",
      "CT/Codelist Name": "LB Test or Examination",
      "Data Type": "Char",
      "cdnum": 130,
      "Term Decoded": "甲胎蛋白",
      "Term  Dictionaries": NaN,
      "Version": NaN,
      "flag": NaN
    },
    {
      "CT/CodelistID": "LBTEST",
      "CT/Codelist Name": "LB Test or Examination",
      "Data Type": "Char",
      "cdnum": 131,
      "Term Decoded": "异常凝血酶原",
      "Term  Dictionaries": NaN,
      "Version": NaN,
      "flag": NaN
    },
    {
      "CT/CodelistID": "LBTESTCD",
      "CT/Codelist Name": "LB Test or Examination Short Name",
      "Data Type": "Char",
      "cdnum": 1,
      "Term Decoded": "NK",
      "Term  Dictionaries": "颈部",
      "Version": NaN,
      "flag": NaN
    },
    {
      "CT/CodelistID": "LBTESTCD",
      "CT/Codelist Name": "LB Test or Examination Short Name",
      "Data Type": "Char",
      "cdnum": 2,
      "Term Decoded": "CH",
      "Term  Dictionaries": "胸部",
      "Version": NaN,
      "flag": NaN
    },
    {
      "CT/CodelistID": "LBTESTCD",
      "CT/Codelist Name": "LB Test or Examination Short Name",
      "Data Type": "Char",
      "cdnum": 3,
      "Term Decoded": "AB",
      "Term  Dictionaries": "腹部",
      "Version": NaN,
      "flag": NaN
    },
    {
      "CT/CodelistID": "LBTESTCD",
      "CT/Codelist Name": "LB Test or Examination Short Name",
      "Data Type": "Char",
      "cdnum": 4,
      "Term Decoded": "PE",
      "Term  Dictionaries": "盆部",
      "Version": NaN,
      "flag": NaN
    },
    {
      "CT/CodelistID": "LBTESTCD",
      "CT/Codelist Name": "LB Test or Examination Short Name",
      "Data Type": "Char",
      "cdnum": 5,
      "Term Decoded": "OTH",
      "Term  Dictionaries": "其他部位",
      "Version": NaN,
      "flag": NaN
    },
    {
      "CT/CodelistID": "LBTESTCD",
      "CT/Codelist Name": "LB Test or Examination Short Name",
      "Data Type": "Char",
      "cdnum": 6,
      "Term Decoded": "HCG",
      "Term  Dictionaries": "血妊娠",
      "Version": NaN,
      "flag": NaN
    },
    {
      "CT/CodelistID": "LBTESTCD",
      "CT/Codelist Name": "LB Test or Examination Short Name",
      "Data Type": "Char",
      "cdnum": 7,
      "Term Decoded": "HBSAG",
      "Term  Dictionaries": "乙肝病毒表面抗原",
      "Version": NaN,
      "flag": NaN
    },
    {
      "CT/CodelistID": "LBTESTCD",
      "CT/Codelist Name": "LB Test or Examination Short Name",
      "Data Type": "Char",
      "cdnum": 8,
      "Term Decoded": "HBCAB",
      "Term  Dictionaries": "乙肝核心抗体",
      "Version": NaN,
      "flag": NaN
    },
    {
      "CT/CodelistID": "LBTESTCD",
      "CT/Codelist Name": "LB Test or Examination Short Name",
      "Data Type": "Char",
      "cdnum": 9,
      "Term Decoded": "HCVAB",
      "Term  Dictionaries": "丙肝抗体",
      "Version": NaN,
      "flag": NaN
    },
    {
      "CT/CodelistID": "LBTESTCD",
      "CT/Codelist Name": "LB Test or Examination Short Name",
      "Data Type": "Char",
      "cdnum": 10,
      "Term Decoded": "HIV",
      "Term  Dictionaries": "HIV抗体",
      "Version": NaN,
      "flag": NaN
    },
    {
      "CT/CodelistID": "LBTESTCD",
      "CT/Codelist Name": "LB Test or Examination Short Name",
      "Data Type": "Char",
      "cdnum": 11,
      "Term Decoded": "TP",
      "Term  Dictionaries": "梅毒特异性抗体",
      "Version": NaN,
      "flag": NaN
    },
    {
      "CT/CodelistID": "LBTESTCD",
      "CT/Codelist Name": "LB Test or Examination Short Name",
      "Data Type": "Char",
      "cdnum": 12,
      "Term Decoded": "WBC",
      "Term  Dictionaries": "白细胞计数（WBC）",
      "Version": NaN,
      "flag": NaN
    },
    {
      "CT/CodelistID": "LBTESTCD",
      "CT/Codelist Name": "LB Test or Examination Short Name",
      "Data Type": "Char",
      "cdnum": 13,
      "Term Decoded": "RBC",
      "Term  Dictionaries": "红细胞计数（RBC）",
      "Version": NaN,
      "flag": NaN
    },
    {
      "CT/CodelistID": "LBTESTCD",
      "CT/Codelist Name": "LB Test or Examination Short Name",
      "Data Type": "Char",
      "cdnum": 14,
      "Term Decoded": "HGB",
      "Term  Dictionaries": "血红蛋白（Hb）",
      "Version": NaN,
      "flag": NaN
    },
    {
      "CT/CodelistID": "LBTESTCD",
      "CT/Codelist Name": "LB Test or Examination Short Name",
      "Data Type": "Char",
      "cdnum": 15,
      "Term Decoded": "NEUT",
      "Term  Dictionaries": "中性粒细胞计数（NEUT）",
      "Version": NaN,
      "flag": NaN
    },
    {
      "CT/CodelistID": "LBTESTCD",
      "CT/Codelist Name": "LB Test or Examination Short Name",
      "Data Type": "Char",
      "cdnum": 16,
      "Term Decoded": "PLT",
      "Term  Dictionaries": "血小板计数（PLT）",
      "Version": NaN,
      "flag": NaN
    },
    {
      "CT/CodelistID": "LBTESTCD",
      "CT/Codelist Name": "LB Test or Examination Short Name",
      "Data Type": "Char",
      "cdnum": 17,
      "Term Decoded": "LYM",
      "Term  Dictionaries": "淋巴细胞计数（LY）",
      "Version": NaN,
      "flag": NaN
    },
    {
      "CT/CodelistID": "LBTESTCD",
      "CT/Codelist Name": "LB Test or Examination Short Name",
      "Data Type": "Char",
      "cdnum": 18,
      "Term Decoded": "NEUTCE",
      "Term  Dictionaries": "中性粒细胞百分比（N%）",
      "Version": NaN,
      "flag": NaN
    },
    {
      "CT/CodelistID": "LBTESTCD",
      "CT/Codelist Name": "LB Test or Examination Short Name",
      "Data Type": "Char",
      "cdnum": 19,
      "Term Decoded": "LYMCE",
      "Term  Dictionaries": "淋巴细胞百分比（L%）",
      "Version": NaN,
      "flag": NaN
    },
    {
      "CT/CodelistID": "LBTESTCD",
      "CT/Codelist Name": "LB Test or Examination Short Name",
      "Data Type": "Char",
      "cdnum": 20,
      "Term Decoded": "MONOCE",
      "Term  Dictionaries": "单核细胞百分比（M%）",
      "Version": NaN,
      "flag": NaN
    },
    {
      "CT/CodelistID": "LBTESTCD",
      "CT/Codelist Name": "LB Test or Examination Short Name",
      "Data Type": "Char",
      "cdnum": 21,
      "Term Decoded": "EOS",
      "Term  Dictionaries": "嗜酸性粒细胞百分比（EO%）",
      "Version": NaN,
      "flag": NaN
    },
    {
      "CT/CodelistID": "LBTESTCD",
      "CT/Codelist Name": "LB Test or Examination Short Name",
      "Data Type": "Char",
      "cdnum": 22,
      "Term Decoded": "BASO",
      "Term  Dictionaries": "嗜碱性粒细胞百分比（BASO%）",
      "Version": NaN,
      "flag": NaN
    },
    {
      "CT/CodelistID": "LBTESTCD",
      "CT/Codelist Name": "LB Test or Examination Short Name",
      "Data Type": "Char",
      "cdnum": 23,
      "Term Decoded": "ULEU",
      "Term  Dictionaries": "白细胞",
      "Version": NaN,
      "flag": NaN
    },
    {
      "CT/CodelistID": "LBTESTCD",
      "CT/Codelist Name": "LB Test or Examination Short Name",
      "Data Type": "Char",
      "cdnum": 24,
      "Term Decoded": "OB",
      "Term  Dictionaries": "红细胞",
      "Version": NaN,
      "flag": NaN
    },
    {
      "CT/CodelistID": "LBTESTCD",
      "CT/Codelist Name": "LB Test or Examination Short Name",
      "Data Type": "Char",
      "cdnum": 25,
      "Term Decoded": "UPROT",
      "Term  Dictionaries": "尿蛋白（PRO）",
      "Version": NaN,
      "flag": NaN
    },
    {
      "CT/CodelistID": "LBTESTCD",
      "CT/Codelist Name": "LB Test or Examination Short Name",
      "Data Type": "Char",
      "cdnum": 26,
      "Term Decoded": "UKET",
      "Term  Dictionaries": "尿酮体（KET）",
      "Version": NaN,
      "flag": NaN
    },
    {
      "CT/CodelistID": "LBTESTCD",
      "CT/Codelist Name": "LB Test or Examination Short Name",
      "Data Type": "Char",
      "cdnum": 27,
      "Term Decoded": "UGLUC",
      "Term  Dictionaries": "尿糖（GLU）",
      "Version": NaN,
      "flag": NaN
    },
    {
      "CT/CodelistID": "LBTESTCD",
      "CT/Codelist Name": "LB Test or Examination Short Name",
      "Data Type": "Char",
      "cdnum": 28,
      "Term Decoded": "PH",
      "Term  Dictionaries": "尿酸碱度（pH）",
      "Version": NaN,
      "flag": NaN
    },
    {
      "CT/CodelistID": "LBTESTCD",
      "CT/Codelist Name": "LB Test or Examination Short Name",
      "Data Type": "Char",
      "cdnum": 29,
      "Term Decoded": "FRBC",
      "Term  Dictionaries": "便红细胞",
      "Version": NaN,
      "flag": NaN
    },
    {
      "CT/CodelistID": "LBTESTCD",
      "CT/Codelist Name": "LB Test or Examination Short Name",
      "Data Type": "Char",
      "cdnum": 30,
      "Term Decoded": "FWBC",
      "Term  Dictionaries": "便白细胞",
      "Version": NaN,
      "flag": NaN
    },
    {
      "CT/CodelistID": "LBTESTCD",
      "CT/Codelist Name": "LB Test or Examination Short Name",
      "Data Type": "Char",
      "cdnum": 31,
      "Term Decoded": "FOB",
      "Term  Dictionaries": "隐血",
      "Version": NaN,
      "flag": NaN
    },
    {
      "CT/CodelistID": "LBTESTCD",
      "CT/Codelist Name": "LB Test or Examination Short Name",
      "Data Type": "Char",
      "cdnum": 32,
      "Term Decoded": "ALT",
      "Term  Dictionaries": "丙氨酸氨基转移酶（ALT）",
      "Version": NaN,
      "flag": NaN
    },
    {
      "CT/CodelistID": "LBTESTCD",
      "CT/Codelist Name": "LB Test or Examination Short Name",
      "Data Type": "Char",
      "cdnum": 33,
      "Term Decoded": "AST",
      "Term  Dictionaries": "门冬氨酸氨基转移酶（AST）",
      "Version": NaN,
      "flag": NaN
    },
    {
      "CT/CodelistID": "LBTESTCD",
      "CT/Codelist Name": "LB Test or Examination Short Name",
      "Data Type": "Char",
      "cdnum": 34,
      "Term Decoded": "ALP",
      "Term  Dictionaries": "碱性磷酸酶（ALP）",
      "Version": NaN,
      "flag": NaN
    },
    {
      "CT/CodelistID": "LBTESTCD",
      "CT/Codelist Name": "LB Test or Examination Short Name",
      "Data Type": "Char",
      "cdnum": 35,
      "Term Decoded": "GGT",
      "Term  Dictionaries": "γ-谷氨酰转移酶（GGT）",
      "Version": NaN,
      "flag": NaN
    },
    {
      "CT/CodelistID": "LBTESTCD",
      "CT/Codelist Name": "LB Test or Examination Short Name",
      "Data Type": "Char",
      "cdnum": 36,
      "Term Decoded": "GLUC",
      "Term  Dictionaries": "空腹葡萄糖（GLU）",
      "Version": NaN,
      "flag": NaN
    },
    {
      "CT/CodelistID": "LBTESTCD",
      "CT/Codelist Name": "LB Test or Examination Short Name",
      "Data Type": "Char",
      "cdnum": 37,
      "Term Decoded": "HUREA",
      "Term  Dictionaries": "尿素（UREA）",
      "Version": NaN,
      "flag": NaN
    },
    {
      "CT/CodelistID": "LBTESTCD",
      "CT/Codelist Name": "LB Test or Examination Short Name",
      "Data Type": "Char",
      "cdnum": 38,
      "Term Decoded": "HBUN",
      "Term  Dictionaries": "尿素氮（BUN）",
      "Version": NaN,
      "flag": NaN
    },
    {
      "CT/CodelistID": "LBTESTCD",
      "CT/Codelist Name": "LB Test or Examination Short Name",
      "Data Type": "Char",
      "cdnum": 39,
      "Term Decoded": "BILI",
      "Term  Dictionaries": "总胆红素（TBIL）",
      "Version": NaN,
      "flag": NaN
    },
    {
      "CT/CodelistID": "LBTESTCD",
      "CT/Codelist Name": "LB Test or Examination Short Name",
      "Data Type": "Char",
      "cdnum": 40,
      "Term Decoded": "BILIND",
      "Term  Dictionaries": "直接胆红素（DBIL）",
      "Version": NaN,
      "flag": NaN
    },
    {
      "CT/CodelistID": "LBTESTCD",
      "CT/Codelist Name": "LB Test or Examination Short Name",
      "Data Type": "Char",
      "cdnum": 41,
      "Term Decoded": "CREAT",
      "Term  Dictionaries": "血肌酐（CREA）",
      "Version": NaN,
      "flag": NaN
    },
    {
      "CT/CodelistID": "LBTESTCD",
      "CT/Codelist Name": "LB Test or Examination Short Name",
      "Data Type": "Char",
      "cdnum": 42,
      "Term Decoded": "PROT",
      "Term  Dictionaries": "总蛋白（TP）",
      "Version": NaN,
      "flag": NaN
    },
    {
      "CT/CodelistID": "LBTESTCD",
      "CT/Codelist Name": "LB Test or Examination Short Name",
      "Data Type": "Char",
      "cdnum": 43,
      "Term Decoded": "ALB",
      "Term  Dictionaries": "白蛋白（ALB）",
      "Version": NaN,
      "flag": NaN
    },
    {
      "CT/CodelistID": "LBTESTCD",
      "CT/Codelist Name": "LB Test or Examination Short Name",
      "Data Type": "Char",
      "cdnum": 44,
      "Term Decoded": "TCHO",
      "Term  Dictionaries": "总胆固醇（TCHO）",
      "Version": NaN,
      "flag": NaN
    },
    {
      "CT/CodelistID": "LBTESTCD",
      "CT/Codelist Name": "LB Test or Examination Short Name",
      "Data Type": "Char",
      "cdnum": 45,
      "Term Decoded": "TRIG",
      "Term  Dictionaries": "甘油三酯（TG）",
      "Version": NaN,
      "flag": NaN
    },
    {
      "CT/CodelistID": "LBTESTCD",
      "CT/Codelist Name": "LB Test or Examination Short Name",
      "Data Type": "Char",
      "cdnum": 46,
      "Term Decoded": "LDLC",
      "Term  Dictionaries": "低密度脂蛋白(LDLC)",
      "Version": NaN,
      "flag": NaN
    },
    {
      "CT/CodelistID": "LBTESTCD",
      "CT/Codelist Name": "LB Test or Examination Short Name",
      "Data Type": "Char",
      "cdnum": 47,
      "Term Decoded": "HDLC",
      "Term  Dictionaries": "高密度脂蛋白(HDLC)",
      "Version": NaN,
      "flag": NaN
    },
    {
      "CT/CodelistID": "LBTESTCD",
      "CT/Codelist Name": "LB Test or Examination Short Name",
      "Data Type": "Char",
      "cdnum": 48,
      "Term Decoded": NaN,
      "Term  Dictionaries": "钠（Na）",
      "Version": NaN,
      "flag": NaN
    },
    {
      "CT/CodelistID": "LBTESTCD",
      "CT/Codelist Name": "LB Test or Examination Short Name",
      "Data Type": "Char",
      "cdnum": 49,
      "Term Decoded": "K",
      "Term  Dictionaries": "钾（K）",
      "Version": NaN,
      "flag": NaN
    },
    {
      "CT/CodelistID": "LBTESTCD",
      "CT/Codelist Name": "LB Test or Examination Short Name",
      "Data Type": "Char",
      "cdnum": 50,
      "Term Decoded": "CA",
      "Term  Dictionaries": "钙（Ca2）",
      "Version": NaN,
      "flag": NaN
    },
    {
      "CT/CodelistID": "LBTESTCD",
      "CT/Codelist Name": "LB Test or Examination Short Name",
      "Data Type": "Char",
      "cdnum": 51,
      "Term Decoded": "CL",
      "Term  Dictionaries": "氯（Cl）",
      "Version": NaN,
      "flag": NaN
    },
    {
      "CT/CodelistID": "LBTESTCD",
      "CT/Codelist Name": "LB Test or Examination Short Name",
      "Data Type": "Char",
      "cdnum": 52,
      "Term Decoded": "TCO2",
      "Term  Dictionaries": "总二氧化碳（TCO2）",
      "Version": NaN,
      "flag": NaN
    },
    {
      "CT/CodelistID": "LBTESTCD",
      "CT/Codelist Name": "LB Test or Examination Short Name",
      "Data Type": "Char",
      "cdnum": 53,
      "Term Decoded": "LDH",
      "Term  Dictionaries": "乳酸脱氢酶（LDH）",
      "Version": NaN,
      "flag": NaN
    },
    {
      "CT/CodelistID": "LBTESTCD",
      "CT/Codelist Name": "LB Test or Examination Short Name",
      "Data Type": "Char",
      "cdnum": 54,
      "Term Decoded": "CK",
      "Term  Dictionaries": "肌酸激酶（CK）",
      "Version": NaN,
      "flag": NaN
    },
    {
      "CT/CodelistID": "LBTESTCD",
      "CT/Codelist Name": "LB Test or Examination Short Name",
      "Data Type": "Char",
      "cdnum": 55,
      "Term Decoded": "UA",
      "Term  Dictionaries": "尿酸（UA）",
      "Version": NaN,
      "flag": NaN
    },
    {
      "CT/CodelistID": "LBTESTCD",
      "CT/Codelist Name": "LB Test or Examination Short Name",
      "Data Type": "Char",
      "cdnum": 56,
      "Term Decoded": "HCKMB",
      "Term  Dictionaries": "血生化肌酸激酶同工酶（CK-MB）",
      "Version": NaN,
      "flag": NaN
    },
    {
      "CT/CodelistID": "LBTESTCD",
      "CT/Codelist Name": "LB Test or Examination Short Name",
      "Data Type": "Char",
      "cdnum": 57,
      "Term Decoded": "PT",
      "Term  Dictionaries": "凝血酶原时间（PT）",
      "Version": NaN,
      "flag": NaN
    },
    {
      "CT/CodelistID": "LBTESTCD",
      "CT/Codelist Name": "LB Test or Examination Short Name",
      "Data Type": "Char",
      "cdnum": 58,
      "Term Decoded": "APTT",
      "Term  Dictionaries": "活化部分凝血活酶时间（APTT）",
      "Version": NaN,
      "flag": NaN
    },
    {
      "CT/CodelistID": "LBTESTCD",
      "CT/Codelist Name": "LB Test or Examination Short Name",
      "Data Type": "Char",
      "cdnum": 59,
      "Term Decoded": "INR",
      "Term  Dictionaries": "国际标准化比值（INR）",
      "Version": NaN,
      "flag": NaN
    },
    {
      "CT/CodelistID": "LBTESTCD",
      "CT/Codelist Name": "LB Test or Examination Short Name",
      "Data Type": "Char",
      "cdnum": 60,
      "Term Decoded": "CKMB",
      "Term  Dictionaries": "心肌酶谱肌酸激酶同工酶（CK-MB）",
      "Version": NaN,
      "flag": NaN
    },
    {
      "CT/CodelistID": "LBTESTCD",
      "CT/Codelist Name": "LB Test or Examination Short Name",
      "Data Type": "Char",
      "cdnum": 61,
      "Term Decoded": "MB",
      "Term  Dictionaries": "肌红蛋白",
      "Version": NaN,
      "flag": NaN
    },
    {
      "CT/CodelistID": "LBTESTCD",
      "CT/Codelist Name": "LB Test or Examination Short Name",
      "Data Type": "Char",
      "cdnum": 62,
      "Term Decoded": "TI",
      "Term  Dictionaries": "肌钙蛋白T/I",
      "Version": NaN,
      "flag": NaN
    },
    {
      "CT/CodelistID": "LBTESTCD",
      "CT/Codelist Name": "LB Test or Examination Short Name",
      "Data Type": "Char",
      "cdnum": 63,
      "Term Decoded": "FT3",
      "Term  Dictionaries": "血清游离三碘甲腺原氨酸（FT3）",
      "Version": NaN,
      "flag": NaN
    },
    {
      "CT/CodelistID": "LBTESTCD",
      "CT/Codelist Name": "LB Test or Examination Short Name",
      "Data Type": "Char",
      "cdnum": 64,
      "Term Decoded": "FT4",
      "Term  Dictionaries": "血清游离甲状腺素（FT4）",
      "Version": NaN,
      "flag": NaN
    },
    {
      "CT/CodelistID": "LBTESTCD",
      "CT/Codelist Name": "LB Test or Examination Short Name",
      "Data Type": "Char",
      "cdnum": 65,
      "Term Decoded": "TSH",
      "Term  Dictionaries": "促甲状腺激素（TSH）",
      "Version": NaN,
      "flag": NaN
    },
    {
      "CT/CodelistID": "LBTESTCD",
      "CT/Codelist Name": "LB Test or Examination Short Name",
      "Data Type": "Char",
      "cdnum": 66,
      "Term Decoded": "CD4",
      "Term  Dictionaries": "CD4",
      "Version": NaN,
      "flag": NaN
    },
    {
      "CT/CodelistID": "LBTESTCD",
      "CT/Codelist Name": "LB Test or Examination Short Name",
      "Data Type": "Char",
      "cdnum": 67,
      "Term Decoded": "CD8",
      "Term  Dictionaries": "CD8",
      "Version": NaN,
      "flag": NaN
    },
    {
      "CT/CodelistID": "LBTESTCD",
      "CT/Codelist Name": "LB Test or Examination Short Name",
      "Data Type": "Char",
      "cdnum": 68,
      "Term Decoded": "CDRA",
      "Term  Dictionaries": "CD4/CD8",
      "Version": NaN,
      "flag": NaN
    },
    {
      "CT/CodelistID": "LBTESTCD",
      "CT/Codelist Name": "LB Test or Examination Short Name",
      "Data Type": "Char",
      "cdnum": 69,
      "Term Decoded": "B",
      "Term  Dictionaries": "心脏超声",
      "Version": NaN,
      "flag": NaN
    },
    {
      "CT/CodelistID": "LBTESTCD",
      "CT/Codelist Name": "LB Test or Examination Short Name",
      "Data Type": "Char",
      "cdnum": 70,
      "Term Decoded": "OB1",
      "Term  Dictionaries": "双侧下肢静脉彩超",
      "Version": NaN,
      "flag": NaN
    },
    {
      "CT/CodelistID": "LBTESTCD",
      "CT/Codelist Name": "LB Test or Examination Short Name",
      "Data Type": "Char",
      "cdnum": 71,
      "Term Decoded": "UERCE",
      "Term  Dictionaries": "尿常规_尿红细胞形态信息",
      "Version": NaN,
      "flag": NaN
    },
    {
      "CT/CodelistID": "LBTESTCD",
      "CT/Codelist Name": "LB Test or Examination Short Name",
      "Data Type": "Char",
      "cdnum": 72,
      "Term Decoded": "UCRYSTA",
      "Term  Dictionaries": "尿常规_尿结晶",
      "Version": NaN,
      "flag": NaN
    },
    {
      "CT/CodelistID": "LBTESTCD",
      "CT/Codelist Name": "LB Test or Examination Short Name",
      "Data Type": "Char",
      "cdnum": 73,
      "Term Decoded": "DDIMER",
      "Term  Dictionaries": "凝血功能_D-二聚体测定",
      "Version": NaN,
      "flag": NaN
    },
    {
      "CT/CodelistID": "LBTESTCD",
      "CT/Codelist Name": "LB Test or Examination Short Name",
      "Data Type": "Char",
      "cdnum": 74,
      "Term Decoded": "MCV",
      "Term  Dictionaries": "血常规_红细胞容积",
      "Version": NaN,
      "flag": NaN
    },
    {
      "CT/CodelistID": "LBTESTCD",
      "CT/Codelist Name": "LB Test or Examination Short Name",
      "Data Type": "Char",
      "cdnum": 75,
      "Term Decoded": "P",
      "Term  Dictionaries": "无机磷",
      "Version": NaN,
      "flag": NaN
    },
    {
      "CT/CodelistID": "LBTESTCD",
      "CT/Codelist Name": "LB Test or Examination Short Name",
      "Data Type": "Char",
      "cdnum": 76,
      "Term Decoded": "OB2",
      "Term  Dictionaries": "浅表淋巴结彩色多普勒超声检查",
      "Version": NaN,
      "flag": NaN
    },
    {
      "CT/CodelistID": "LBTESTCD",
      "CT/Codelist Name": "LB Test or Examination Short Name",
      "Data Type": "Char",
      "cdnum": 77,
      "Term Decoded": "FOSH",
      "Term  Dictionaries": "促卵泡生成素",
      "Version": NaN,
      "flag": NaN
    },
    {
      "CT/CodelistID": "LBTESTCD",
      "CT/Codelist Name": "LB Test or Examination Short Name",
      "Data Type": "Char",
      "cdnum": 78,
      "Term Decoded": "ESTR",
      "Term  Dictionaries": "雌二醇",
      "Version": NaN,
      "flag": NaN
    },
    {
      "CT/CodelistID": "LBTESTCD",
      "CT/Codelist Name": "LB Test or Examination Short Name",
      "Data Type": "Char",
      "cdnum": 79,
      "Term Decoded": "PIPR",
      "Term  Dictionaries": "垂体泌乳素",
      "Version": NaN,
      "flag": NaN
    },
    {
      "CT/CodelistID": "LBTESTCD",
      "CT/Codelist Name": "LB Test or Examination Short Name",
      "Data Type": "Char",
      "cdnum": 80,
      "Term Decoded": "PROG",
      "Term  Dictionaries": "孕酮",
      "Version": NaN,
      "flag": NaN
    },
    {
      "CT/CodelistID": "LBTESTCD",
      "CT/Codelist Name": "LB Test or Examination Short Name",
      "Data Type": "Char",
      "cdnum": 81,
      "Term Decoded": "TOST",
      "Term  Dictionaries": "睾酮",
      "Version": NaN,
      "flag": NaN
    },
    {
      "CT/CodelistID": "LBTESTCD",
      "CT/Codelist Name": "LB Test or Examination Short Name",
      "Data Type": "Char",
      "cdnum": 82,
      "Term Decoded": "LUHO",
      "Term  Dictionaries": "促黄体生成素",
      "Version": NaN,
      "flag": NaN
    },
    {
      "CT/CodelistID": "LBTESTCD",
      "CT/Codelist Name": "LB Test or Examination Short Name",
      "Data Type": "Char",
      "cdnum": 83,
      "Term Decoded": "BHCG",
      "Term  Dictionaries": "β-人绒毛膜促性腺激素",
      "Version": NaN,
      "flag": NaN
    },
    {
      "CT/CodelistID": "LBTESTCD",
      "CT/Codelist Name": "LB Test or Examination Short Name",
      "Data Type": "Char",
      "cdnum": 84,
      "Term Decoded": "INTLK10",
      "Term  Dictionaries": "白介素-10",
      "Version": NaN,
      "flag": NaN
    },
    {
      "CT/CodelistID": "LBTESTCD",
      "CT/Codelist Name": "LB Test or Examination Short Name",
      "Data Type": "Char",
      "cdnum": 85,
      "Term Decoded": "UOCCBLD",
      "Term  Dictionaries": "尿常规_尿隐血",
      "Version": NaN,
      "flag": NaN
    },
    {
      "CT/CodelistID": "LBTESTCD",
      "CT/Codelist Name": "LB Test or Examination Short Name",
      "Data Type": "Char",
      "cdnum": 86,
      "Term Decoded": "INTLK12",
      "Term  Dictionaries": "白介素-12",
      "Version": NaN,
      "flag": NaN
    },
    {
      "CT/CodelistID": "LBTESTCD",
      "CT/Codelist Name": "LB Test or Examination Short Name",
      "Data Type": "Char",
      "cdnum": 87,
      "Term Decoded": "INTLK17",
      "Term  Dictionaries": "白介素-17A",
      "Version": NaN,
      "flag": NaN
    },
    {
      "CT/CodelistID": "LBTESTCD",
      "CT/Codelist Name": "LB Test or Examination Short Name",
      "Data Type": "Char",
      "cdnum": 88,
      "Term Decoded": "INTLK1B",
      "Term  Dictionaries": "白介素-1β",
      "Version": NaN,
      "flag": NaN
    },
    {
      "CT/CodelistID": "LBTESTCD",
      "CT/Codelist Name": "LB Test or Examination Short Name",
      "Data Type": "Char",
      "cdnum": 89,
      "Term Decoded": "CA125AG",
      "Term  Dictionaries": "癌症抗原125",
      "Version": NaN,
      "flag": NaN
    },
    {
      "CT/CodelistID": "LBTESTCD",
      "CT/Codelist Name": "LB Test or Examination Short Name",
      "Data Type": "Char",
      "cdnum": 90,
      "Term Decoded": "INTLK2",
      "Term  Dictionaries": "白介素-2",
      "Version": NaN,
      "flag": NaN
    },
    {
      "CT/CodelistID": "LBTESTCD",
      "CT/Codelist Name": "LB Test or Examination Short Name",
      "Data Type": "Char",
      "cdnum": 91,
      "Term Decoded": "CA19_9AG",
      "Term  Dictionaries": "癌症抗原19-9",
      "Version": NaN,
      "flag": NaN
    },
    {
      "CT/CodelistID": "LBTESTCD",
      "CT/Codelist Name": "LB Test or Examination Short Name",
      "Data Type": "Char",
      "cdnum": 92,
      "Term Decoded": "INTLK4",
      "Term  Dictionaries": "白介素-4",
      "Version": NaN,
      "flag": NaN
    },
    {
      "CT/CodelistID": "LBTESTCD",
      "CT/Codelist Name": "LB Test or Examination Short Name",
      "Data Type": "Char",
      "cdnum": 93,
      "Term Decoded": "CA242AG",
      "Term  Dictionaries": "癌症抗原242",
      "Version": NaN,
      "flag": NaN
    },
    {
      "CT/CodelistID": "LBTESTCD",
      "CT/Codelist Name": "LB Test or Examination Short Name",
      "Data Type": "Char",
      "cdnum": 94,
      "Term Decoded": "INTLK5",
      "Term  Dictionaries": "白介素-5",
      "Version": NaN,
      "flag": NaN
    },
    {
      "CT/CodelistID": "LBTESTCD",
      "CT/Codelist Name": "LB Test or Examination Short Name",
      "Data Type": "Char",
      "cdnum": 95,
      "Term Decoded": "CA72_4AG",
      "Term  Dictionaries": "癌症抗原CA72-4",
      "Version": NaN,
      "flag": NaN
    },
    {
      "CT/CodelistID": "LBTESTCD",
      "CT/Codelist Name": "LB Test or Examination Short Name",
      "Data Type": "Char",
      "cdnum": 96,
      "Term Decoded": "INTLK6",
      "Term  Dictionaries": "白介素-6",
      "Version": NaN,
      "flag": NaN
    },
    {
      "CT/CodelistID": "LBTESTCD",
      "CT/Codelist Name": "LB Test or Examination Short Name",
      "Data Type": "Char",
      "cdnum": 97,
      "Term Decoded": "OHBSAG2",
      "Term  Dictionaries": "抗乙型肝炎病毒表面抗体",
      "Version": NaN,
      "flag": NaN
    },
    {
      "CT/CodelistID": "LBTESTCD",
      "CT/Codelist Name": "LB Test or Examination Short Name",
      "Data Type": "Char",
      "cdnum": 98,
      "Term Decoded": "INTLK8",
      "Term  Dictionaries": "白介素-8",
      "Version": NaN,
      "flag": NaN
    },
    {
      "CT/CodelistID": "LBTESTCD",
      "CT/Codelist Name": "LB Test or Examination Short Name",
      "Data Type": "Char",
      "cdnum": 99,
      "Term Decoded": "ORBC",
      "Term  Dictionaries": "红细胞计数",
      "Version": NaN,
      "flag": NaN
    },
    {
      "CT/CodelistID": "LBTESTCD",
      "CT/Codelist Name": "LB Test or Examination Short Name",
      "Data Type": "Char",
      "cdnum": 100,
      "Term Decoded": "ACTH",
      "Term  Dictionaries": "促肾上腺皮质激素",
      "Version": NaN,
      "flag": NaN
    },
    {
      "CT/CodelistID": "LBTESTCD",
      "CT/Codelist Name": "LB Test or Examination Short Name",
      "Data Type": "Char",
      "cdnum": 101,
      "Term Decoded": "CHGB",
      "Term  Dictionaries": "血红蛋白浓度(比色法)",
      "Version": NaN,
      "flag": NaN
    },
    {
      "CT/CodelistID": "LBTESTCD",
      "CT/Codelist Name": "LB Test or Examination Short Name",
      "Data Type": "Char",
      "cdnum": 102,
      "Term Decoded": "IFNA",
      "Term  Dictionaries": "干扰素-α",
      "Version": NaN,
      "flag": NaN
    },
    {
      "CT/CodelistID": "LBTESTCD",
      "CT/Codelist Name": "LB Test or Examination Short Name",
      "Data Type": "Char",
      "cdnum": 103,
      "Term Decoded": "LIPASET",
      "Term  Dictionaries": "脂肪酶",
      "Version": NaN,
      "flag": NaN
    },
    {
      "CT/CodelistID": "LBTESTCD",
      "CT/Codelist Name": "LB Test or Examination Short Name",
      "Data Type": "Char",
      "cdnum": 104,
      "Term Decoded": "IFNG",
      "Term  Dictionaries": "干扰素-γ",
      "Version": NaN,
      "flag": NaN
    },
    {
      "CT/CodelistID": "LBTESTCD",
      "CT/Codelist Name": "LB Test or Examination Short Name",
      "Data Type": "Char",
      "cdnum": 105,
      "Term Decoded": "CORTISOL",
      "Term  Dictionaries": "皮质醇",
      "Version": NaN,
      "flag": NaN
    },
    {
      "CT/CodelistID": "LBTESTCD",
      "CT/Codelist Name": "LB Test or Examination Short Name",
      "Data Type": "Char",
      "cdnum": 106,
      "Term Decoded": "FERRITIN",
      "Term  Dictionaries": "铁蛋白",
      "Version": NaN,
      "flag": NaN
    },
    {
      "CT/CodelistID": "LBTESTCD",
      "CT/Codelist Name": "LB Test or Examination Short Name",
      "Data Type": "Char",
      "cdnum": 107,
      "Term Decoded": "RT3",
      "Term  Dictionaries": "三碘甲状原氨酸",
      "Version": NaN,
      "flag": NaN
    },
    {
      "CT/CodelistID": "LBTESTCD",
      "CT/Codelist Name": "LB Test or Examination Short Name",
      "Data Type": "Char",
      "cdnum": 108,
      "Term Decoded": "TNFA",
      "Term  Dictionaries": "肿瘤坏死因子-α",
      "Version": NaN,
      "flag": NaN
    },
    {
      "CT/CodelistID": "LBTESTCD",
      "CT/Codelist Name": "LB Test or Examination Short Name",
      "Data Type": "Char",
      "cdnum": 109,
      "Term Decoded": "T3FR",
      "Term  Dictionaries": "游离三碘甲状原氨酸",
      "Version": NaN,
      "flag": NaN
    },
    {
      "CT/CodelistID": "LBTESTCD",
      "CT/Codelist Name": "LB Test or Examination Short Name",
      "Data Type": "Char",
      "cdnum": 110,
      "Term Decoded": "UBILI",
      "Term  Dictionaries": "尿胆红素",
      "Version": NaN,
      "flag": NaN
    },
    {
      "CT/CodelistID": "LBTESTCD",
      "CT/Codelist Name": "LB Test or Examination Short Name",
      "Data Type": "Char",
      "cdnum": 111,
      "Term Decoded": "UROBIL",
      "Term  Dictionaries": "尿胆原",
      "Version": NaN,
      "flag": NaN
    },
    {
      "CT/CodelistID": "LBTESTCD",
      "CT/Codelist Name": "LB Test or Examination Short Name",
      "Data Type": "Char",
      "cdnum": 112,
      "Term Decoded": "CA15_3AG",
      "Term  Dictionaries": "糖类抗原15-3",
      "Version": NaN,
      "flag": NaN
    },
    {
      "CT/CodelistID": "LBTESTCD",
      "CT/Codelist Name": "LB Test or Examination Short Name",
      "Data Type": "Char",
      "cdnum": 113,
      "Term Decoded": "CYFRA211",
      "Term  Dictionaries": "细胞角蛋白19片段",
      "Version": NaN,
      "flag": NaN
    },
    {
      "CT/CodelistID": "LBTESTCD",
      "CT/Codelist Name": "LB Test or Examination Short Name",
      "Data Type": "Char",
      "cdnum": 114,
      "Term Decoded": "CEA",
      "Term  Dictionaries": "肿瘤二项_癌胚抗原",
      "Version": NaN,
      "flag": NaN
    },
    {
      "CT/CodelistID": "LBTESTCD",
      "CT/Codelist Name": "LB Test or Examination Short Name",
      "Data Type": "Char",
      "cdnum": 115,
      "Term Decoded": "OHGB",
      "Term  Dictionaries": "血红蛋白",
      "Version": NaN,
      "flag": NaN
    },
    {
      "CT/CodelistID": "LBTESTCD",
      "CT/Codelist Name": "LB Test or Examination Short Name",
      "Data Type": "Char",
      "cdnum": 116,
      "Term Decoded": "OALB",
      "Term  Dictionaries": "白蛋白",
      "Version": NaN,
      "flag": NaN
    },
    {
      "CT/CodelistID": "LBTESTCD",
      "CT/Codelist Name": "LB Test or Examination Short Name",
      "Data Type": "Char",
      "cdnum": 117,
      "Term Decoded": "NONHDL",
      "Term  Dictionaries": "非高密度脂蛋白胆固醇",
      "Version": NaN,
      "flag": NaN
    },
    {
      "CT/CodelistID": "LBTESTCD",
      "CT/Codelist Name": "LB Test or Examination Short Name",
      "Data Type": "Char",
      "cdnum": 118,
      "Term Decoded": "OBILIND",
      "Term  Dictionaries": "间接胆红素",
      "Version": NaN,
      "flag": NaN
    },
    {
      "CT/CodelistID": "LBTESTCD",
      "CT/Codelist Name": "LB Test or Examination Short Name",
      "Data Type": "Char",
      "cdnum": 119,
      "Term Decoded": "OCL",
      "Term  Dictionaries": "氯",
      "Version": NaN,
      "flag": NaN
    },
    {
      "CT/CodelistID": "LBTESTCD",
      "CT/Codelist Name": "LB Test or Examination Short Name",
      "Data Type": "Char",
      "cdnum": 120,
      "Term Decoded": "MG",
      "Term  Dictionaries": "镁离子（Mg）",
      "Version": NaN,
      "flag": NaN
    },
    {
      "CT/CodelistID": "LBTESTCD",
      "CT/Codelist Name": "LB Test or Examination Short Name",
      "Data Type": "Char",
      "cdnum": 121,
      "Term Decoded": "ONA",
      "Term  Dictionaries": "钠",
      "Version": NaN,
      "flag": NaN
    },
    {
      "CT/CodelistID": "LBTESTCD",
      "CT/Codelist Name": "LB Test or Examination Short Name",
      "Data Type": "Char",
      "cdnum": 122,
      "Term Decoded": "OBILDIR",
      "Term  Dictionaries": "直接胆红素",
      "Version": NaN,
      "flag": NaN
    },
    {
      "CT/CodelistID": "LBTESTCD",
      "CT/Codelist Name": "LB Test or Examination Short Name",
      "Data Type": "Char",
      "cdnum": 123,
      "Term Decoded": "OBILI",
      "Term  Dictionaries": "总胆红素",
      "Version": NaN,
      "flag": NaN
    },
    {
      "CT/CodelistID": "LBTESTCD",
      "CT/Codelist Name": "LB Test or Examination Short Name",
      "Data Type": "Char",
      "cdnum": 124,
      "Term Decoded": "OHBSAG1",
      "Term  Dictionaries": "乙肝病毒定量",
      "Version": NaN,
      "flag": NaN
    },
    {
      "CT/CodelistID": "LBTESTCD",
      "CT/Codelist Name": "LB Test or Examination Short Name",
      "Data Type": "Char",
      "cdnum": 125,
      "Term Decoded": "LDL",
      "Term  Dictionaries": "低密度脂蛋白胆固醇",
      "Version": NaN,
      "flag": NaN
    },
    {
      "CT/CodelistID": "LBTESTCD",
      "CT/Codelist Name": "LB Test or Examination Short Name",
      "Data Type": "Char",
      "cdnum": 126,
      "Term Decoded": "VLDL",
      "Term  Dictionaries": "极低密度脂蛋白胆固醇",
      "Version": NaN,
      "flag": NaN
    },
    {
      "CT/CodelistID": "LBTESTCD",
      "CT/Codelist Name": "LB Test or Examination Short Name",
      "Data Type": "Char",
      "cdnum": 127,
      "Term Decoded": "ONONHDL",
      "Term  Dictionaries": "非高密度脂蛋白胆固醇(mg/dL)",
      "Version": NaN,
      "flag": NaN
    },
    {
      "CT/CodelistID": "LBTESTCD",
      "CT/Codelist Name": "LB Test or Examination Short Name",
      "Data Type": "Char",
      "cdnum": 128,
      "Term Decoded": "OVLDL",
      "Term  Dictionaries": "极低密度脂蛋白胆固醇(mg/dL)",
      "Version": NaN,
      "flag": NaN
    },
    {
      "CT/CodelistID": "LBTESTCD",
      "CT/Codelist Name": "LB Test or Examination Short Name",
      "Data Type": "Char",
      "cdnum": 129,
      "Term Decoded": "CODOUL",
      "Term  Dictionaries": "肝、胆、胰、脾彩超检查",
      "Version": NaN,
      "flag": NaN
    },
    {
      "CT/CodelistID": "LBTESTCD",
      "CT/Codelist Name": "LB Test or Examination Short Name",
      "Data Type": "Char",
      "cdnum": 130,
      "Term Decoded": "AFP",
      "Term  Dictionaries": "甲胎蛋白",
      "Version": NaN,
      "flag": NaN
    },
    {
      "CT/CodelistID": "LBTESTCD",
      "CT/Codelist Name": "LB Test or Examination Short Name",
      "Data Type": "Char",
      "cdnum": 131,
      "Term Decoded": "APT",
      "Term  Dictionaries": "异常凝血酶原",
      "Version": NaN,
      "flag": NaN
    },
    {
      "CT/CodelistID": "LOC",
      "CT/Codelist Name": "部位",
      "Data Type": "Char",
      "cdnum": 1,
      "Term Decoded": "肺",
      "Term  Dictionaries": NaN,
      "Version": NaN,
      "flag": NaN
    },
    {
      "CT/CodelistID": "LOC",
      "CT/Codelist Name": "部位",
      "Data Type": "Char",
      "cdnum": 2,
      "Term Decoded": "腹膜",
      "Term  Dictionaries": NaN,
      "Version": NaN,
      "flag": NaN
    },
    {
      "CT/CodelistID": "LOC",
      "CT/Codelist Name": "部位",
      "Data Type": "Char",
      "cdnum": 3,
      "Term Decoded": "腹膜腔",
      "Term  Dictionaries": NaN,
      "Version": NaN,
      "flag": NaN
    },
    {
      "CT/CodelistID": "LOC",
      "CT/Codelist Name": "部位",
      "Data Type": "Char",
      "cdnum": 4,
      "Term Decoded": "腹腔",
      "Term  Dictionaries": NaN,
      "Version": NaN,
      "flag": NaN
    },
    {
      "CT/CodelistID": "LOC",
      "CT/Codelist Name": "部位",
      "Data Type": "Char",
      "cdnum": 5,
      "Term Decoded": "肝",
      "Term  Dictionaries": NaN,
      "Version": NaN,
      "flag": NaN
    },
    {
      "CT/CodelistID": "LOC",
      "CT/Codelist Name": "部位",
      "Data Type": "Char",
      "cdnum": 6,
      "Term Decoded": "淋巴结",
      "Term  Dictionaries": NaN,
      "Version": NaN,
      "flag": NaN
    },
    {
      "CT/CodelistID": "LOC",
      "CT/Codelist Name": "部位",
      "Data Type": "Char",
      "cdnum": 7,
      "Term Decoded": "门静脉",
      "Term  Dictionaries": NaN,
      "Version": NaN,
      "flag": NaN
    },
    {
      "CT/CodelistID": "LOC",
      "CT/Codelist Name": "部位",
      "Data Type": "Char",
      "cdnum": 8,
      "Term Decoded": "脑",
      "Term  Dictionaries": NaN,
      "Version": NaN,
      "flag": NaN
    },
    {
      "CT/CodelistID": "LOC",
      "CT/Codelist Name": "部位",
      "Data Type": "Char",
      "cdnum": 9,
      "Term Decoded": "乳腺",
      "Term  Dictionaries": NaN,
      "Version": NaN,
      "flag": NaN
    },
    {
      "CT/CodelistID": "LOC",
      "CT/Codelist Name": "部位",
      "Data Type": "Char",
      "cdnum": 10,
      "Term Decoded": "网膜",
      "Term  Dictionaries": NaN,
      "Version": NaN,
      "flag": NaN
    },
    {
      "CT/CodelistID": "LOC",
      "CT/Codelist Name": "部位",
      "Data Type": "Char",
      "cdnum": 11,
      "Term Decoded": "网膜、腹膜",
      "Term  Dictionaries": NaN,
      "Version": NaN,
      "flag": NaN
    },
    {
      "CT/CodelistID": "LOC",
      "CT/Codelist Name": "部位",
      "Data Type": "Char",
      "cdnum": 12,
      "Term Decoded": "胸膜",
      "Term  Dictionaries": NaN,
      "Version": NaN,
      "flag": NaN
    },
    {
      "CT/CodelistID": "LOC",
      "CT/Codelist Name": "部位",
      "Data Type": "Char",
      "cdnum": 13,
      "Term Decoded": "胰腺",
      "Term  Dictionaries": NaN,
      "Version": NaN,
      "flag": NaN
    },
    {
      "CT/CodelistID": "METHOD",
      "CT/Codelist Name": "检查方法",
      "Data Type": "Char",
      "cdnum": 1,
      "Term Decoded": "CT",
      "Term  Dictionaries": NaN,
      "Version": NaN,
      "flag": NaN
    },
    {
      "CT/CodelistID": "METHOD",
      "CT/Codelist Name": "检查方法",
      "Data Type": "Char",
      "cdnum": 2,
      "Term Decoded": "MRI",
      "Term  Dictionaries": NaN,
      "Version": NaN,
      "flag": NaN
    },
    {
      "CT/CodelistID": "METHOD",
      "CT/Codelist Name": "检测方法",
      "Data Type": "Char",
      "cdnum": 3,
      "Term Decoded": "PET/CT",
      "Term  Dictionaries": NaN,
      "Version": NaN,
      "flag": NaN
    },
    {
      "CT/CodelistID": "METHOD",
      "CT/Codelist Name": "检测方法",
      "Data Type": "Char",
      "cdnum": 4,
      "Term Decoded": "电化学发光分析法",
      "Term  Dictionaries": NaN,
      "Version": NaN,
      "flag": NaN
    },
    {
      "CT/CodelistID": "MHCAT",
      "CT/Codelist Name": "类别",
      "Data Type": "Char",
      "cdnum": 1,
      "Term Decoded": "既往/现病史",
      "Term  Dictionaries": NaN,
      "Version": NaN,
      "flag": NaN
    },
    {
      "CT/CodelistID": "MHCAT",
      "CT/Codelist Name": "类别",
      "Data Type": "Char",
      "cdnum": 2,
      "Term Decoded": "既往肿瘤史",
      "Term  Dictionaries": NaN,
      "Version": NaN,
      "flag": NaN
    },
    {
      "CT/CodelistID": "ND",
      "CT/Codelist Name": "未做状态",
      "Data Type": "Char",
      "cdnum": 1,
      "Term Decoded": "NOT DONE",
      "Term  Dictionaries": NaN,
      "Version": NaN,
      "flag": NaN
    },
    {
      "CT/CodelistID": "NRIND",
      "CT/Codelist Name": "相对参考范围指示符",
      "Data Type": "Char",
      "cdnum": 1,
      "Term Decoded": "HIGH",
      "Term  Dictionaries": NaN,
      "Version": NaN,
      "flag": NaN
    },
    {
      "CT/CodelistID": "NRIND",
      "CT/Codelist Name": "相对参考范围指示符",
      "Data Type": "Char",
      "cdnum": 2,
      "Term Decoded": "LOW",
      "Term  Dictionaries": NaN,
      "Version": NaN,
      "flag": NaN
    },
    {
      "CT/CodelistID": "NRIND",
      "CT/Codelist Name": "相对参考范围指示符",
      "Data Type": "Char",
      "cdnum": 3,
      "Term Decoded": "NORMAL",
      "Term  Dictionaries": NaN,
      "Version": NaN,
      "flag": NaN
    },
    {
      "CT/CodelistID": "FL",
      "CT/Codelist Name": "YN",
      "Data Type": "Char",
      "cdnum": 1,
      "Term Decoded": "N",
      "Term  Dictionaries": NaN,
      "Version": NaN,
      "flag": NaN
    },
    {
      "CT/CodelistID": "FL",
      "CT/Codelist Name": "YN",
      "Data Type": "Char",
      "cdnum": 2,
      "Term Decoded": "Y",
      "Term  Dictionaries": NaN,
      "Version": NaN,
      "flag": NaN
    },
    {
      "CT/CodelistID": "NY",
      "CT/Codelist Name": "是否",
      "Data Type": "Char",
      "cdnum": 1,
      "Term Decoded": "否",
      "Term  Dictionaries": NaN,
      "Version": NaN,
      "flag": NaN
    },
    {
      "CT/CodelistID": "NY",
      "CT/Codelist Name": "是否",
      "Data Type": "Char",
      "cdnum": 2,
      "Term Decoded": "是",
      "Term  Dictionaries": NaN,
      "Version": NaN,
      "flag": NaN
    },
    {
      "CT/CodelistID": "ONCRSCAT",
      "CT/Codelist Name": "类别",
      "Data Type": "Char",
      "cdnum": 1,
      "Term Decoded": "iRECIST",
      "Term  Dictionaries": NaN,
      "Version": NaN,
      "flag": NaN
    },
    {
      "CT/CodelistID": "ONCRSCAT",
      "CT/Codelist Name": "类别",
      "Data Type": "Char",
      "cdnum": 2,
      "Term Decoded": "RECIST 1.1",
      "Term  Dictionaries": NaN,
      "Version": NaN,
      "flag": NaN
    },
    {
      "CT/CodelistID": "ONCRTS",
      "CT/Codelist Name": "评估项名称",
      "Data Type": "Char",
      "cdnum": 1,
      "Term Decoded": "肿瘤靶病灶评估结果",
      "Term  Dictionaries": NaN,
      "Version": NaN,
      "flag": NaN
    },
    {
      "CT/CodelistID": "ONCRTS",
      "CT/Codelist Name": "评估项名称",
      "Data Type": "Char",
      "cdnum": 2,
      "Term Decoded": "肿瘤非靶病灶评估结果",
      "Term  Dictionaries": NaN,
      "Version": NaN,
      "flag": NaN
    },
    {
      "CT/CodelistID": "ONCRTS",
      "CT/Codelist Name": "评估项名称",
      "Data Type": "Char",
      "cdnum": 3,
      "Term Decoded": "是否有新发病灶",
      "Term  Dictionaries": NaN,
      "Version": NaN,
      "flag": NaN
    },
    {
      "CT/CodelistID": "ONCRTS",
      "CT/Codelist Name": "评估项名称",
      "Data Type": "Char",
      "cdnum": 4,
      "Term Decoded": "总体评估",
      "Term  Dictionaries": NaN,
      "Version": NaN,
      "flag": NaN
    },
    {
      "CT/CodelistID": "ONCRTSCD",
      "CT/Codelist Name": "评估项简称",
      "Data Type": "Char",
      "cdnum": 1,
      "Term Decoded": "TRGRESP",
      "Term  Dictionaries": "肿瘤靶病灶评估结果",
      "Version": NaN,
      "flag": NaN
    },
    {
      "CT/CodelistID": "ONCRTSCD",
      "CT/Codelist Name": "评估项简称",
      "Data Type": "Char",
      "cdnum": 2,
      "Term Decoded": "NTRGRESP",
      "Term  Dictionaries": "肿瘤非靶病灶评估结果",
      "Version": NaN,
      "flag": NaN
    },
    {
      "CT/CodelistID": "ONCRTSCD",
      "CT/Codelist Name": "评估项简称",
      "Data Type": "Char",
      "cdnum": 3,
      "Term Decoded": "NEWLPROG",
      "Term  Dictionaries": "是否有新发病灶",
      "Version": NaN,
      "flag": NaN
    },
    {
      "CT/CodelistID": "ONCRTSCD",
      "CT/Codelist Name": "评估项简称",
      "Data Type": "Char",
      "cdnum": 4,
      "Term Decoded": "OVRLRESP",
      "Term  Dictionaries": "总体评估",
      "Version": NaN,
      "flag": NaN
    },
    {
      "CT/CodelistID": "OUT",
      "CT/Codelist Name": "转归",
      "Data Type": "Char",
      "cdnum": 1,
      "Term Decoded": "好转",
      "Term  Dictionaries": NaN,
      "Version": NaN,
      "flag": NaN
    },
    {
      "CT/CodelistID": "OUT",
      "CT/Codelist Name": "转归",
      "Data Type": "Char",
      "cdnum": 2,
      "Term Decoded": "痊愈/解决无后遗症",
      "Term  Dictionaries": NaN,
      "Version": NaN,
      "flag": NaN
    },
    {
      "CT/CodelistID": "OUT",
      "CT/Codelist Name": "转归",
      "Data Type": "Char",
      "cdnum": 3,
      "Term Decoded": "痊愈/解决有后遗症",
      "Term  Dictionaries": NaN,
      "Version": NaN,
      "flag": NaN
    },
    {
      "CT/CodelistID": "OUT",
      "CT/Codelist Name": "转归",
      "Data Type": "Char",
      "cdnum": 4,
      "Term Decoded": "死亡",
      "Term  Dictionaries": NaN,
      "Version": NaN,
      "flag": NaN
    },
    {
      "CT/CodelistID": "OUT",
      "CT/Codelist Name": "转归",
      "Data Type": "Char",
      "cdnum": 5,
      "Term Decoded": "未好转",
      "Term  Dictionaries": NaN,
      "Version": NaN,
      "flag": NaN
    },
    {
      "CT/CodelistID": "OUT",
      "CT/Codelist Name": "转归",
      "Data Type": "Char",
      "cdnum": 6,
      "Term Decoded": "不详",
      "Term  Dictionaries": NaN,
      "Version": NaN,
      "flag": NaN
    },
    {
      "CT/CodelistID": "PCCAT",
      "CT/Codelist Name": "类别",
      "Data Type": "Char",
      "cdnum": 1,
      "Term Decoded": "ANALYTE",
      "Term  Dictionaries": NaN,
      "Version": NaN,
      "flag": NaN
    },
    {
      "CT/CodelistID": "PCTEST",
      "CT/Codelist Name": "PC Test or Examination",
      "Data Type": "Char",
      "cdnum": 1,
      "Term Decoded": "MR001",
      "Term  Dictionaries": NaN,
      "Version": NaN,
      "flag": "Y"
    },
    {
      "CT/CodelistID": "PCTEST",
      "CT/Codelist Name": "PC Test or Examination",
      "Data Type": "Char",
      "cdnum": 2,
      "Term Decoded": "IL-6",
      "Term  Dictionaries": NaN,
      "Version": NaN,
      "flag": "Y"
    },
    {
      "CT/CodelistID": "PCTEST",
      "CT/Codelist Name": "PC Test or Examination",
      "Data Type": "Char",
      "cdnum": 3,
      "Term Decoded": "TNF-α",
      "Term  Dictionaries": NaN,
      "Version": NaN,
      "flag": "Y"
    },
    {
      "CT/CodelistID": "PCTEST",
      "CT/Codelist Name": "PC Test or Examination",
      "Data Type": "Char",
      "cdnum": 4,
      "Term Decoded": "TGF-β1",
      "Term  Dictionaries": NaN,
      "Version": NaN,
      "flag": "Y"
    },
    {
      "CT/CodelistID": "PCTEST",
      "CT/Codelist Name": "PC Test or Examination",
      "Data Type": "Char",
      "cdnum": 5,
      "Term Decoded": "CD4+T细胞数量",
      "Term  Dictionaries": NaN,
      "Version": NaN,
      "flag": "Y"
    },
    {
      "CT/CodelistID": "PCTEST",
      "CT/Codelist Name": "PC Test or Examination",
      "Data Type": "Char",
      "cdnum": 6,
      "Term Decoded": "CD8+T细胞数量",
      "Term  Dictionaries": NaN,
      "Version": NaN,
      "flag": "Y"
    },
    {
      "CT/CodelistID": "PCTEST",
      "CT/Codelist Name": "PC Test or Examination",
      "Data Type": "Char",
      "cdnum": 7,
      "Term Decoded": "CD4+T细胞/CD8+T细胞",
      "Term  Dictionaries": NaN,
      "Version": NaN,
      "flag": "Y"
    },
    {
      "CT/CodelistID": "PCTEST",
      "CT/Codelist Name": "PC Test or Examination",
      "Data Type": "Char",
      "cdnum": 8,
      "Term Decoded": "Treg细胞比例",
      "Term  Dictionaries": NaN,
      "Version": NaN,
      "flag": "Y"
    },
    {
      "CT/CodelistID": "PCTEST",
      "CT/Codelist Name": "PC Test or Examination",
      "Data Type": "Char",
      "cdnum": 9,
      "Term Decoded": "Th17细胞比例",
      "Term  Dictionaries": NaN,
      "Version": NaN,
      "flag": "Y"
    },
    {
      "CT/CodelistID": "PCTEST",
      "CT/Codelist Name": "PC Test or Examination",
      "Data Type": "Char",
      "cdnum": 10,
      "Term Decoded": "Th1细胞比例",
      "Term  Dictionaries": NaN,
      "Version": NaN,
      "flag": "Y"
    },
    {
      "CT/CodelistID": "PCTEST",
      "CT/Codelist Name": "PC Test or Examination",
      "Data Type": "Char",
      "cdnum": 11,
      "Term Decoded": "Th2细胞比例",
      "Term  Dictionaries": NaN,
      "Version": NaN,
      "flag": "Y"
    },
    {
      "CT/CodelistID": "PCTEST",
      "CT/Codelist Name": "PC Test or Examination",
      "Data Type": "Char",
      "cdnum": 12,
      "Term Decoded": "MR001在CD4+T细胞的受体占有率",
      "Term  Dictionaries": NaN,
      "Version": NaN,
      "flag": "Y"
    },
    {
      "CT/CodelistID": "PCTESTCD",
      "CT/Codelist Name": "PC Test or Examination Short Name",
      "Data Type": "Char",
      "cdnum": 1,
      "Term Decoded": "MR001",
      "Term  Dictionaries": "MR001",
      "Version": NaN,
      "flag": "Y"
    },
    {
      "CT/CodelistID": "PCTESTCD",
      "CT/Codelist Name": "PC Test or Examination Short Name",
      "Data Type": "Char",
      "cdnum": 2,
      "Term Decoded": "IL_6",
      "Term  Dictionaries": "IL-6",
      "Version": NaN,
      "flag": "Y"
    },
    {
      "CT/CodelistID": "PCTESTCD",
      "CT/Codelist Name": "PC Test or Examination Short Name",
      "Data Type": "Char",
      "cdnum": 3,
      "Term Decoded": "TNF_A",
      "Term  Dictionaries": "TNF-α",
      "Version": NaN,
      "flag": "Y"
    },
    {
      "CT/CodelistID": "PCTESTCD",
      "CT/Codelist Name": "PC Test or Examination Short Name",
      "Data Type": "Char",
      "cdnum": 4,
      "Term Decoded": "TGF_B1",
      "Term  Dictionaries": "TGF-β1",
      "Version": NaN,
      "flag": "Y"
    },
    {
      "CT/CodelistID": "PCTESTCD",
      "CT/Codelist Name": "PC Test or Examination Short Name",
      "Data Type": "Char",
      "cdnum": 5,
      "Term Decoded": "CD4",
      "Term  Dictionaries": "CD4+T细胞数量",
      "Version": NaN,
      "flag": "Y"
    },
    {
      "CT/CodelistID": "PCTESTCD",
      "CT/Codelist Name": "PC Test or Examination Short Name",
      "Data Type": "Char",
      "cdnum": 6,
      "Term Decoded": "CD8",
      "Term  Dictionaries": "CD8+T细胞数量",
      "Version": NaN,
      "flag": "Y"
    },
    {
      "CT/CodelistID": "PCTESTCD",
      "CT/Codelist Name": "PC Test or Examination Short Name",
      "Data Type": "Char",
      "cdnum": 7,
      "Term Decoded": "CD4/CD8",
      "Term  Dictionaries": "CD4+T细胞/CD8+T细胞",
      "Version": NaN,
      "flag": "Y"
    },
    {
      "CT/CodelistID": "PCTESTCD",
      "CT/Codelist Name": "PC Test or Examination Short Name",
      "Data Type": "Char",
      "cdnum": 8,
      "Term Decoded": "TREG",
      "Term  Dictionaries": "Treg细胞比例",
      "Version": NaN,
      "flag": "Y"
    },
    {
      "CT/CodelistID": "PCTESTCD",
      "CT/Codelist Name": "PC Test or Examination Short Name",
      "Data Type": "Char",
      "cdnum": 9,
      "Term Decoded": "TH17",
      "Term  Dictionaries": "Th17细胞比例",
      "Version": NaN,
      "flag": "Y"
    },
    {
      "CT/CodelistID": "PCTESTCD",
      "CT/Codelist Name": "PC Test or Examination Short Name",
      "Data Type": "Char",
      "cdnum": 10,
      "Term Decoded": "TH1",
      "Term  Dictionaries": "Th1细胞比例",
      "Version": NaN,
      "flag": "Y"
    },
    {
      "CT/CodelistID": "PCTESTCD",
      "CT/Codelist Name": "PC Test or Examination Short Name",
      "Data Type": "Char",
      "cdnum": 11,
      "Term Decoded": "TH2",
      "Term  Dictionaries": "Th2细胞比例",
      "Version": NaN,
      "flag": "Y"
    },
    {
      "CT/CodelistID": "PCTESTCD",
      "CT/Codelist Name": "PC Test or Examination Short Name",
      "Data Type": "Char",
      "cdnum": 12,
      "Term Decoded": "RECOCC",
      "Term  Dictionaries": "MR001在CD4+T细胞的受体占有率",
      "Version": NaN,
      "flag": "Y"
    },
    {
      "CT/CodelistID": "PCTPT",
      "CT/Codelist Name": "计划时点名称",
      "Data Type": "Char",
      "cdnum": 1,
      "Term Decoded": "-2h",
      "Term  Dictionaries": NaN,
      "Version": NaN,
      "flag": NaN
    },
    {
      "CT/CodelistID": "PCTPT",
      "CT/Codelist Name": "计划时点名称",
      "Data Type": "Char",
      "cdnum": 2,
      "Term Decoded": "0.083h",
      "Term  Dictionaries": NaN,
      "Version": NaN,
      "flag": NaN
    },
    {
      "CT/CodelistID": "PCTPT",
      "CT/Codelist Name": "计划时点名称",
      "Data Type": "Char",
      "cdnum": 3,
      "Term Decoded": "1h",
      "Term  Dictionaries": NaN,
      "Version": NaN,
      "flag": NaN
    },
    {
      "CT/CodelistID": "PCTPT",
      "CT/Codelist Name": "计划时点名称",
      "Data Type": "Char",
      "cdnum": 4,
      "Term Decoded": "24h",
      "Term  Dictionaries": NaN,
      "Version": NaN,
      "flag": NaN
    },
    {
      "CT/CodelistID": "PCTPT",
      "CT/Codelist Name": "计划时点名称",
      "Data Type": "Char",
      "cdnum": 5,
      "Term Decoded": "48h",
      "Term  Dictionaries": NaN,
      "Version": NaN,
      "flag": NaN
    },
    {
      "CT/CodelistID": "PCTPT",
      "CT/Codelist Name": "计划时点名称",
      "Data Type": "Char",
      "cdnum": 6,
      "Term Decoded": "96h",
      "Term  Dictionaries": NaN,
      "Version": NaN,
      "flag": NaN
    },
    {
      "CT/CodelistID": "PCTPT",
      "CT/Codelist Name": "计划时点名称",
      "Data Type": "Char",
      "cdnum": 7,
      "Term Decoded": "120h",
      "Term  Dictionaries": NaN,
      "Version": NaN,
      "flag": NaN
    },
    {
      "CT/CodelistID": "PCTPT",
      "CT/Codelist Name": "计划时点名称",
      "Data Type": "Char",
      "cdnum": 8,
      "Term Decoded": "168h",
      "Term  Dictionaries": NaN,
      "Version": NaN,
      "flag": NaN
    },
    {
      "CT/CodelistID": "PCTPT",
      "CT/Codelist Name": "计划时点名称",
      "Data Type": "Char",
      "cdnum": 9,
      "Term Decoded": "240h",
      "Term  Dictionaries": NaN,
      "Version": NaN,
      "flag": NaN
    },
    {
      "CT/CodelistID": "PCTPT",
      "CT/Codelist Name": "计划时点名称",
      "Data Type": "Char",
      "cdnum": 10,
      "Term Decoded": "336h",
      "Term  Dictionaries": NaN,
      "Version": NaN,
      "flag": NaN
    },
    {
      "CT/CodelistID": "PCTPTNUM",
      "CT/Codelist Name": "计划时点编号",
      "Data Type": "Num",
      "cdnum": 1,
      "Term Decoded": "-2",
      "Term  Dictionaries": "-2h",
      "Version": NaN,
      "flag": NaN
    },
    {
      "CT/CodelistID": "PCTPTNUM",
      "CT/Codelist Name": "计划时点编号",
      "Data Type": "Num",
      "cdnum": 2,
      "Term Decoded": "0",
      "Term  Dictionaries": "0.083h",
      "Version": NaN,
      "flag": NaN
    },
    {
      "CT/CodelistID": "PCTPTNUM",
      "CT/Codelist Name": "计划时点编号",
      "Data Type": "Num",
      "cdnum": 3,
      "Term Decoded": "1",
      "Term  Dictionaries": "1h",
      "Version": NaN,
      "flag": NaN
    },
    {
      "CT/CodelistID": "PCTPTNUM",
      "CT/Codelist Name": "计划时点编号",
      "Data Type": "Num",
      "cdnum": 4,
      "Term Decoded": "24",
      "Term  Dictionaries": "24h",
      "Version": NaN,
      "flag": NaN
    },
    {
      "CT/CodelistID": "PCTPTNUM",
      "CT/Codelist Name": "计划时点编号",
      "Data Type": "Num",
      "cdnum": 5,
      "Term Decoded": "48",
      "Term  Dictionaries": "48h",
      "Version": NaN,
      "flag": NaN
    },
    {
      "CT/CodelistID": "PCTPTNUM",
      "CT/Codelist Name": "计划时点编号",
      "Data Type": "Num",
      "cdnum": 6,
      "Term Decoded": "96",
      "Term  Dictionaries": "96h",
      "Version": NaN,
      "flag": NaN
    },
    {
      "CT/CodelistID": "PCTPTNUM",
      "CT/Codelist Name": "计划时点编号",
      "Data Type": "Num",
      "cdnum": 7,
      "Term Decoded": "120",
      "Term  Dictionaries": "120h",
      "Version": NaN,
      "flag": NaN
    },
    {
      "CT/CodelistID": "PCTPTNUM",
      "CT/Codelist Name": "计划时点编号",
      "Data Type": "Num",
      "cdnum": 8,
      "Term Decoded": "168",
      "Term  Dictionaries": "168h",
      "Version": NaN,
      "flag": NaN
    },
    {
      "CT/CodelistID": "PCTPTNUM",
      "CT/Codelist Name": "计划时点编号",
      "Data Type": "Num",
      "cdnum": 9,
      "Term Decoded": "240",
      "Term  Dictionaries": "240h",
      "Version": NaN,
      "flag": NaN
    },
    {
      "CT/CodelistID": "PCTPTNUM",
      "CT/Codelist Name": "计划时点编号",
      "Data Type": "Num",
      "cdnum": 10,
      "Term Decoded": "336",
      "Term  Dictionaries": "336h",
      "Version": NaN,
      "flag": NaN
    },
    {
      "CT/CodelistID": "PECAT",
      "CT/Codelist Name": "类别",
      "Data Type": "Char",
      "cdnum": 1,
      "Term Decoded": "体格检查",
      "Term  Dictionaries": NaN,
      "Version": NaN,
      "flag": NaN
    },
    {
      "CT/CodelistID": "PETEST",
      "CT/Codelist Name": "PE Test or Examination",
      "Data Type": "Char",
      "cdnum": 1,
      "Term Decoded": "一般情况",
      "Term  Dictionaries": NaN,
      "Version": NaN,
      "flag": NaN
    },
    {
      "CT/CodelistID": "PETEST",
      "CT/Codelist Name": "PE Test or Examination",
      "Data Type": "Char",
      "cdnum": 2,
      "Term Decoded": "皮肤黏膜",
      "Term  Dictionaries": NaN,
      "Version": NaN,
      "flag": NaN
    },
    {
      "CT/CodelistID": "PETEST",
      "CT/Codelist Name": "PE Test or Examination",
      "Data Type": "Char",
      "cdnum": 3,
      "Term Decoded": "全身浅表淋巴结",
      "Term  Dictionaries": NaN,
      "Version": NaN,
      "flag": NaN
    },
    {
      "CT/CodelistID": "PETEST",
      "CT/Codelist Name": "PE Test or Examination",
      "Data Type": "Char",
      "cdnum": 4,
      "Term Decoded": "头部及其器官",
      "Term  Dictionaries": NaN,
      "Version": NaN,
      "flag": NaN
    },
    {
      "CT/CodelistID": "PETEST",
      "CT/Codelist Name": "PE Test or Examination",
      "Data Type": "Char",
      "cdnum": 5,
      "Term Decoded": "颈部",
      "Term  Dictionaries": NaN,
      "Version": NaN,
      "flag": NaN
    },
    {
      "CT/CodelistID": "PETEST",
      "CT/Codelist Name": "PE Test or Examination",
      "Data Type": "Char",
      "cdnum": 6,
      "Term Decoded": "胸部",
      "Term  Dictionaries": NaN,
      "Version": NaN,
      "flag": NaN
    },
    {
      "CT/CodelistID": "PETEST",
      "CT/Codelist Name": "PE Test or Examination",
      "Data Type": "Char",
      "cdnum": 7,
      "Term Decoded": "腹部",
      "Term  Dictionaries": NaN,
      "Version": NaN,
      "flag": NaN
    },
    {
      "CT/CodelistID": "PETEST",
      "CT/Codelist Name": "PE Test or Examination",
      "Data Type": "Char",
      "cdnum": 8,
      "Term Decoded": "脊柱及四肢",
      "Term  Dictionaries": NaN,
      "Version": NaN,
      "flag": NaN
    },
    {
      "CT/CodelistID": "PETEST",
      "CT/Codelist Name": "PE Test or Examination",
      "Data Type": "Char",
      "cdnum": 9,
      "Term Decoded": "神经系统",
      "Term  Dictionaries": NaN,
      "Version": NaN,
      "flag": NaN
    },
    {
      "CT/CodelistID": "PETESTCD",
      "CT/Codelist Name": "PE Test or Examination Short Name",
      "Data Type": "Char",
      "cdnum": 1,
      "Term Decoded": "PEOTH",
      "Term  Dictionaries": "一般情况",
      "Version": NaN,
      "flag": NaN
    },
    {
      "CT/CodelistID": "PETESTCD",
      "CT/Codelist Name": "PE Test or Examination Short Name",
      "Data Type": "Char",
      "cdnum": 2,
      "Term Decoded": "SKIN",
      "Term  Dictionaries": "皮肤黏膜",
      "Version": NaN,
      "flag": NaN
    },
    {
      "CT/CodelistID": "PETESTCD",
      "CT/Codelist Name": "PE Test or Examination Short Name",
      "Data Type": "Char",
      "cdnum": 3,
      "Term Decoded": "LN",
      "Term  Dictionaries": "全身浅表淋巴结",
      "Version": NaN,
      "flag": NaN
    },
    {
      "CT/CodelistID": "PETESTCD",
      "CT/Codelist Name": "PE Test or Examination Short Name",
      "Data Type": "Char",
      "cdnum": 4,
      "Term Decoded": "HE",
      "Term  Dictionaries": "头部及其器官",
      "Version": NaN,
      "flag": NaN
    },
    {
      "CT/CodelistID": "PETESTCD",
      "CT/Codelist Name": "PE Test or Examination Short Name",
      "Data Type": "Char",
      "cdnum": 5,
      "Term Decoded": "NE",
      "Term  Dictionaries": "颈部",
      "Version": NaN,
      "flag": NaN
    },
    {
      "CT/CodelistID": "PETESTCD",
      "CT/Codelist Name": "PE Test or Examination Short Name",
      "Data Type": "Char",
      "cdnum": 6,
      "Term Decoded": "THOR",
      "Term  Dictionaries": "胸部",
      "Version": NaN,
      "flag": NaN
    },
    {
      "CT/CodelistID": "PETESTCD",
      "CT/Codelist Name": "PE Test or Examination Short Name",
      "Data Type": "Char",
      "cdnum": 7,
      "Term Decoded": "ABDO",
      "Term  Dictionaries": "腹部",
      "Version": NaN,
      "flag": NaN
    },
    {
      "CT/CodelistID": "PETESTCD",
      "CT/Codelist Name": "PE Test or Examination Short Name",
      "Data Type": "Char",
      "cdnum": 8,
      "Term Decoded": "MUSC",
      "Term  Dictionaries": "脊柱及四肢",
      "Version": NaN,
      "flag": NaN
    },
    {
      "CT/CodelistID": "PETESTCD",
      "CT/Codelist Name": "PE Test or Examination Short Name",
      "Data Type": "Char",
      "cdnum": 9,
      "Term Decoded": "NEPS",
      "Term  Dictionaries": "神经系统",
      "Version": NaN,
      "flag": NaN
    },
    {
      "CT/CodelistID": "PKPARM",
      "CT/Codelist Name": "PP Test or Examination",
      "Data Type": "Char",
      "cdnum": 1,
      "Term Decoded": "Max Conc",
      "Term  Dictionaries": NaN,
      "Version": NaN,
      "flag": "Y"
    },
    {
      "CT/CodelistID": "PKPARM",
      "CT/Codelist Name": "PP Test or Examination",
      "Data Type": "Char",
      "cdnum": 2,
      "Term Decoded": "Time of CMAX Observation",
      "Term  Dictionaries": NaN,
      "Version": NaN,
      "flag": "Y"
    },
    {
      "CT/CodelistID": "PKPARM",
      "CT/Codelist Name": "PP Test or Examination",
      "Data Type": "Char",
      "cdnum": 3,
      "Term Decoded": "Half-Life Lambda z",
      "Term  Dictionaries": NaN,
      "Version": NaN,
      "flag": "Y"
    },
    {
      "CT/CodelistID": "PKPARM",
      "CT/Codelist Name": "PP Test or Examination",
      "Data Type": "Char",
      "cdnum": 4,
      "Term Decoded": "AUC to Last Nonzero Conc",
      "Term  Dictionaries": NaN,
      "Version": NaN,
      "flag": "Y"
    },
    {
      "CT/CodelistID": "PKPARM",
      "CT/Codelist Name": "PP Test or Examination",
      "Data Type": "Char",
      "cdnum": 5,
      "Term Decoded": "AUC Infinity Obs",
      "Term  Dictionaries": NaN,
      "Version": NaN,
      "flag": "Y"
    },
    {
      "CT/CodelistID": "PKPARM",
      "CT/Codelist Name": "PP Test or Examination",
      "Data Type": "Char",
      "cdnum": 6,
      "Term Decoded": "AUC %Extrapolation Obs",
      "Term  Dictionaries": NaN,
      "Version": NaN,
      "flag": "Y"
    },
    {
      "CT/CodelistID": "PKPARM",
      "CT/Codelist Name": "PP Test or Examination",
      "Data Type": "Char",
      "cdnum": 7,
      "Term Decoded": "Total CL Obs by F",
      "Term  Dictionaries": NaN,
      "Version": NaN,
      "flag": "Y"
    },
    {
      "CT/CodelistID": "PKPARM",
      "CT/Codelist Name": "PP Test or Examination",
      "Data Type": "Char",
      "cdnum": 8,
      "Term Decoded": "Vz Obs by F",
      "Term  Dictionaries": NaN,
      "Version": NaN,
      "flag": "Y"
    },
    {
      "CT/CodelistID": "PKPARM",
      "CT/Codelist Name": "PP Test or Examination",
      "Data Type": "Char",
      "cdnum": 9,
      "Term Decoded": "Ratio of multiple administration and single administration of aucimo",
      "Term  Dictionaries": NaN,
      "Version": NaN,
      "flag": "Y"
    },
    {
      "CT/CodelistID": "PKPARM",
      "CT/Codelist Name": "PP Test or Examination",
      "Data Type": "Char",
      "cdnum": 10,
      "Term Decoded": "Cmax multiple dose and single dose ratio",
      "Term  Dictionaries": NaN,
      "Version": NaN,
      "flag": "Y"
    },
    {
      "CT/CodelistID": "PKPARMCD",
      "CT/Codelist Name": "PP Test or Examination Short Name",
      "Data Type": "Char",
      "cdnum": 1,
      "Term Decoded": "CMAX",
      "Term  Dictionaries": "Max Conc",
      "Version": NaN,
      "flag": "Y"
    },
    {
      "CT/CodelistID": "PKPARMCD",
      "CT/Codelist Name": "PP Test or Examination Short Name",
      "Data Type": "Char",
      "cdnum": 2,
      "Term Decoded": "TMAX",
      "Term  Dictionaries": "Time of CMAX Observation",
      "Version": NaN,
      "flag": "Y"
    },
    {
      "CT/CodelistID": "PKPARMCD",
      "CT/Codelist Name": "PP Test or Examination Short Name",
      "Data Type": "Char",
      "cdnum": 3,
      "Term Decoded": "LAMZHL",
      "Term  Dictionaries": "Half-Life Lambda z",
      "Version": NaN,
      "flag": "Y"
    },
    {
      "CT/CodelistID": "PKPARMCD",
      "CT/Codelist Name": "PP Test or Examination Short Name",
      "Data Type": "Char",
      "cdnum": 4,
      "Term Decoded": "AUCLST",
      "Term  Dictionaries": "AUC to Last Nonzero Conc",
      "Version": NaN,
      "flag": "Y"
    },
    {
      "CT/CodelistID": "PKPARMCD",
      "CT/Codelist Name": "PP Test or Examination Short Name",
      "Data Type": "Char",
      "cdnum": 5,
      "Term Decoded": "AUCIFO",
      "Term  Dictionaries": "AUC Infinity Obs",
      "Version": NaN,
      "flag": "Y"
    },
    {
      "CT/CodelistID": "PKPARMCD",
      "CT/Codelist Name": "PP Test or Examination Short Name",
      "Data Type": "Char",
      "cdnum": 6,
      "Term Decoded": "AUCPEO",
      "Term  Dictionaries": "AUC %Extrapolation Obs",
      "Version": NaN,
      "flag": "Y"
    },
    {
      "CT/CodelistID": "PKPARMCD",
      "CT/Codelist Name": "PP Test or Examination Short Name",
      "Data Type": "Char",
      "cdnum": 7,
      "Term Decoded": "CLFO",
      "Term  Dictionaries": "Total CL Obs by F",
      "Version": NaN,
      "flag": "Y"
    },
    {
      "CT/CodelistID": "PKPARMCD",
      "CT/Codelist Name": "PP Test or Examination Short Name",
      "Data Type": "Char",
      "cdnum": 8,
      "Term Decoded": "VZFO",
      "Term  Dictionaries": "Vz Obs by F",
      "Version": NaN,
      "flag": "Y"
    },
    {
      "CT/CodelistID": "PKPARMCD",
      "CT/Codelist Name": "PP Test or Examination Short Name",
      "Data Type": "Char",
      "cdnum": 9,
      "Term Decoded": "RACAUC",
      "Term  Dictionaries": "Ratio of multiple administration and single administration of aucimo",
      "Version": NaN,
      "flag": "Y"
    },
    {
      "CT/CodelistID": "PKPARMCD",
      "CT/Codelist Name": "PP Test or Examination Short Name",
      "Data Type": "Char",
      "cdnum": 10,
      "Term Decoded": "RACCMAX",
      "Term  Dictionaries": "Cmax multiple dose and single dose ratio",
      "Version": NaN,
      "flag": "Y"
    },
    {
      "CT/CodelistID": "PKUNIT",
      "CT/Codelist Name": "PK单位",
      "Data Type": "Char",
      "cdnum": 1,
      "Term Decoded": "%",
      "Term  Dictionaries": NaN,
      "Version": NaN,
      "flag": NaN
    },
    {
      "CT/CodelistID": "PKUNIT",
      "CT/Codelist Name": "PK单位",
      "Data Type": "Char",
      "cdnum": 2,
      "Term Decoded": "Events/μL(B)",
      "Term  Dictionaries": NaN,
      "Version": NaN,
      "flag": NaN
    },
    {
      "CT/CodelistID": "PKUNIT",
      "CT/Codelist Name": "PK单位",
      "Data Type": "Char",
      "cdnum": 3,
      "Term Decoded": "h",
      "Term  Dictionaries": NaN,
      "Version": NaN,
      "flag": NaN
    },
    {
      "CT/CodelistID": "PKUNIT",
      "CT/Codelist Name": "PK单位",
      "Data Type": "Char",
      "cdnum": 4,
      "Term Decoded": "h*ng/mL",
      "Term  Dictionaries": NaN,
      "Version": NaN,
      "flag": NaN
    },
    {
      "CT/CodelistID": "PKUNIT",
      "CT/Codelist Name": "PK单位",
      "Data Type": "Char",
      "cdnum": 5,
      "Term Decoded": "mL",
      "Term  Dictionaries": NaN,
      "Version": NaN,
      "flag": NaN
    },
    {
      "CT/CodelistID": "PKUNIT",
      "CT/Codelist Name": "PK单位",
      "Data Type": "Char",
      "cdnum": 6,
      "Term Decoded": "mL/h",
      "Term  Dictionaries": NaN,
      "Version": NaN,
      "flag": NaN
    },
    {
      "CT/CodelistID": "PKUNIT",
      "CT/Codelist Name": "PK单位",
      "Data Type": "Char",
      "cdnum": 7,
      "Term Decoded": "ng/mL",
      "Term  Dictionaries": NaN,
      "Version": NaN,
      "flag": NaN
    },
    {
      "CT/CodelistID": "PKUNIT",
      "CT/Codelist Name": "PK单位",
      "Data Type": "Char",
      "cdnum": 8,
      "Term Decoded": "pg/mL",
      "Term  Dictionaries": NaN,
      "Version": NaN,
      "flag": NaN
    },
    {
      "CT/CodelistID": "PPCAT",
      "CT/Codelist Name": "类别",
      "Data Type": "Char",
      "cdnum": 1,
      "Term Decoded": "单次给药血样采集",
      "Term  Dictionaries": NaN,
      "Version": NaN,
      "flag": NaN
    },
    {
      "CT/CodelistID": "PPCAT",
      "CT/Codelist Name": "类别",
      "Data Type": "Char",
      "cdnum": 2,
      "Term Decoded": "多次给药血样采集",
      "Term  Dictionaries": NaN,
      "Version": NaN,
      "flag": NaN
    },
    {
      "CT/CodelistID": "PRCAT",
      "CT/Codelist Name": "类别",
      "Data Type": "Char",
      "cdnum": 1,
      "Term Decoded": "合并治疗/新的抗肿瘤治疗",
      "Term  Dictionaries": NaN,
      "Version": NaN,
      "flag": NaN
    },
    {
      "CT/CodelistID": "PRCAT",
      "CT/Codelist Name": "类别",
      "Data Type": "Char",
      "cdnum": 2,
      "Term Decoded": "手术史",
      "Term  Dictionaries": NaN,
      "Version": NaN,
      "flag": NaN
    },
    {
      "CT/CodelistID": "PRCAT",
      "CT/Codelist Name": "类别",
      "Data Type": "Char",
      "cdnum": 3,
      "Term Decoded": "肿瘤诊断",
      "Term  Dictionaries": NaN,
      "Version": NaN,
      "flag": NaN
    },
    {
      "CT/CodelistID": "QSCAT",
      "CT/Codelist Name": "类别",
      "Data Type": "Char",
      "cdnum": 1,
      "Term Decoded": "ECOG评分项",
      "Term  Dictionaries": NaN,
      "Version": NaN,
      "flag": NaN
    },
    {
      "CT/CodelistID": "RACE",
      "CT/Codelist Name": "种族",
      "Data Type": "Char",
      "cdnum": 1,
      "Term Decoded": "ASIAN",
      "Term  Dictionaries": NaN,
      "Version": NaN,
      "flag": NaN
    },
    {
      "CT/CodelistID": "ROUTE",
      "CT/Codelist Name": "给药途径",
      "Data Type": "Char",
      "cdnum": 1,
      "Term Decoded": "INTRAVENOUS DRIP",
      "Term  Dictionaries": NaN,
      "Version": NaN,
      "flag": NaN
    },
    {
      "CT/CodelistID": "ROUTE",
      "CT/Codelist Name": "给药途径",
      "Data Type": "Char",
      "cdnum": 2,
      "Term Decoded": "IV 微量泵",
      "Term  Dictionaries": NaN,
      "Version": NaN,
      "flag": NaN
    },
    {
      "CT/CodelistID": "ROUTE",
      "CT/Codelist Name": "给药途径",
      "Data Type": "Char",
      "cdnum": 3,
      "Term Decoded": "IV,微量泵",
      "Term  Dictionaries": NaN,
      "Version": NaN,
      "flag": NaN
    },
    {
      "CT/CodelistID": "ROUTE",
      "CT/Codelist Name": "给药途径",
      "Data Type": "Char",
      "cdnum": 4,
      "Term Decoded": "IV，微量泵",
      "Term  Dictionaries": NaN,
      "Version": NaN,
      "flag": NaN
    },
    {
      "CT/CodelistID": "ROUTE",
      "CT/Codelist Name": "给药途径",
      "Data Type": "Char",
      "cdnum": 5,
      "Term Decoded": "IV微量",
      "Term  Dictionaries": NaN,
      "Version": NaN,
      "flag": NaN
    },
    {
      "CT/CodelistID": "ROUTE",
      "CT/Codelist Name": "给药途径",
      "Data Type": "Char",
      "cdnum": 6,
      "Term Decoded": "IV微量泵",
      "Term  Dictionaries": NaN,
      "Version": NaN,
      "flag": NaN
    },
    {
      "CT/CodelistID": "ROUTE",
      "CT/Codelist Name": "给药途径",
      "Data Type": "Char",
      "cdnum": 7,
      "Term Decoded": "腹部外敷",
      "Term  Dictionaries": NaN,
      "Version": NaN,
      "flag": NaN
    },
    {
      "CT/CodelistID": "ROUTE",
      "CT/Codelist Name": "给药途径",
      "Data Type": "Char",
      "cdnum": 8,
      "Term Decoded": "肌肉注射",
      "Term  Dictionaries": NaN,
      "Version": NaN,
      "flag": NaN
    },
    {
      "CT/CodelistID": "ROUTE",
      "CT/Codelist Name": "给药途径",
      "Data Type": "Char",
      "cdnum": 9,
      "Term Decoded": "静脉滴注",
      "Term  Dictionaries": NaN,
      "Version": NaN,
      "flag": NaN
    },
    {
      "CT/CodelistID": "ROUTE",
      "CT/Codelist Name": "给药途径",
      "Data Type": "Char",
      "cdnum": 10,
      "Term Decoded": "静脉滴注，加入三升",
      "Term  Dictionaries": NaN,
      "Version": NaN,
      "flag": NaN
    },
    {
      "CT/CodelistID": "ROUTE",
      "CT/Codelist Name": "给药途径",
      "Data Type": "Char",
      "cdnum": 11,
      "Term Decoded": "静脉注射",
      "Term  Dictionaries": NaN,
      "Version": NaN,
      "flag": NaN
    },
    {
      "CT/CodelistID": "ROUTE",
      "CT/Codelist Name": "给药途径",
      "Data Type": "Char",
      "cdnum": 12,
      "Term Decoded": "局麻",
      "Term  Dictionaries": NaN,
      "Version": NaN,
      "flag": NaN
    },
    {
      "CT/CodelistID": "ROUTE",
      "CT/Codelist Name": "给药途径",
      "Data Type": "Char",
      "cdnum": 13,
      "Term Decoded": "口服",
      "Term  Dictionaries": NaN,
      "Version": NaN,
      "flag": NaN
    },
    {
      "CT/CodelistID": "ROUTE",
      "CT/Codelist Name": "给药途径",
      "Data Type": "Char",
      "cdnum": 14,
      "Term Decoded": "皮试",
      "Term  Dictionaries": NaN,
      "Version": NaN,
      "flag": NaN
    },
    {
      "CT/CodelistID": "ROUTE",
      "CT/Codelist Name": "给药途径",
      "Data Type": "Char",
      "cdnum": 15,
      "Term Decoded": "皮下注射",
      "Term  Dictionaries": NaN,
      "Version": NaN,
      "flag": NaN
    },
    {
      "CT/CodelistID": "ROUTE",
      "CT/Codelist Name": "给药途径",
      "Data Type": "Char",
      "cdnum": 16,
      "Term Decoded": "其他",
      "Term  Dictionaries": NaN,
      "Version": NaN,
      "flag": NaN
    },
    {
      "CT/CodelistID": "ROUTE",
      "CT/Codelist Name": "给药途径",
      "Data Type": "Char",
      "cdnum": 17,
      "Term Decoded": "气管内滴入",
      "Term  Dictionaries": NaN,
      "Version": NaN,
      "flag": NaN
    },
    {
      "CT/CodelistID": "ROUTE",
      "CT/Codelist Name": "给药途径",
      "Data Type": "Char",
      "cdnum": 18,
      "Term Decoded": "塞肛",
      "Term  Dictionaries": NaN,
      "Version": NaN,
      "flag": NaN
    },
    {
      "CT/CodelistID": "ROUTE",
      "CT/Codelist Name": "给药途径",
      "Data Type": "Char",
      "cdnum": 19,
      "Term Decoded": "湿敷",
      "Term  Dictionaries": NaN,
      "Version": NaN,
      "flag": NaN
    },
    {
      "CT/CodelistID": "ROUTE",
      "CT/Codelist Name": "给药途径",
      "Data Type": "Char",
      "cdnum": 20,
      "Term Decoded": "外用",
      "Term  Dictionaries": NaN,
      "Version": NaN,
      "flag": NaN
    },
    {
      "CT/CodelistID": "ROUTE",
      "CT/Codelist Name": "给药途径",
      "Data Type": "Char",
      "cdnum": 21,
      "Term Decoded": "微量泵",
      "Term  Dictionaries": NaN,
      "Version": NaN,
      "flag": NaN
    },
    {
      "CT/CodelistID": "ROUTE",
      "CT/Codelist Name": "给药途径",
      "Data Type": "Char",
      "cdnum": 22,
      "Term Decoded": "雾化吸入",
      "Term  Dictionaries": NaN,
      "Version": NaN,
      "flag": NaN
    },
    {
      "CT/CodelistID": "ROUTE",
      "CT/Codelist Name": "给药途径",
      "Data Type": "Char",
      "cdnum": 23,
      "Term Decoded": "吸入",
      "Term  Dictionaries": NaN,
      "Version": NaN,
      "flag": NaN
    },
    {
      "CT/CodelistID": "SEX",
      "CT/Codelist Name": "性别",
      "Data Type": "Char",
      "cdnum": 1,
      "Term Decoded": "男",
      "Term  Dictionaries": NaN,
      "Version": NaN,
      "flag": NaN
    },
    {
      "CT/CodelistID": "SEX",
      "CT/Codelist Name": "性别",
      "Data Type": "Char",
      "cdnum": 2,
      "Term Decoded": "女",
      "Term  Dictionaries": NaN,
      "Version": NaN,
      "flag": NaN
    },
    {
      "CT/CodelistID": "SPECTYPE",
      "CT/Codelist Name": "样本类型",
      "Data Type": "Char",
      "cdnum": 1,
      "Term Decoded": "BLOOD",
      "Term  Dictionaries": NaN,
      "Version": NaN,
      "flag": NaN
    },
    {
      "CT/CodelistID": "SPECTYPE",
      "CT/Codelist Name": "样本类型",
      "Data Type": "Char",
      "cdnum": 2,
      "Term Decoded": "PLASMA",
      "Term  Dictionaries": NaN,
      "Version": NaN,
      "flag": NaN
    },
    {
      "CT/CodelistID": "SPECTYPE",
      "CT/Codelist Name": "样本类型",
      "Data Type": "Char",
      "cdnum": 3,
      "Term Decoded": "SERUM",
      "Term  Dictionaries": NaN,
      "Version": NaN,
      "flag": NaN
    },
    {
      "CT/CodelistID": "SSTATRS",
      "CT/Codelist Name": "标准化结果",
      "Data Type": "Char",
      "cdnum": 1,
      "Term Decoded": "生存",
      "Term  Dictionaries": NaN,
      "Version": NaN,
      "flag": NaN
    },
    {
      "CT/CodelistID": "SSTATRS",
      "CT/Codelist Name": "标准化结果",
      "Data Type": "Char",
      "cdnum": 2,
      "Term Decoded": "死亡",
      "Term  Dictionaries": NaN,
      "Version": NaN,
      "flag": NaN
    },
    {
      "CT/CodelistID": "SSTEST",
      "CT/Codelist Name": "状态名称",
      "Data Type": "Char",
      "cdnum": 1,
      "Term Decoded": "生存随访",
      "Term  Dictionaries": NaN,
      "Version": NaN,
      "flag": NaN
    },
    {
      "CT/CodelistID": "SSTESTCD",
      "CT/Codelist Name": "状态简称",
      "Data Type": "Char",
      "cdnum": 1,
      "Term Decoded": "SURVSTAT",
      "Term  Dictionaries": "生存随访",
      "Version": NaN,
      "flag": NaN
    },
    {
      "CT/CodelistID": "SSWAY",
      "CT/Codelist Name": "随访方式",
      "Data Type": "Char",
      "cdnum": 1,
      "Term Decoded": "本院随访",
      "Term  Dictionaries": NaN,
      "Version": NaN,
      "flag": NaN
    },
    {
      "CT/CodelistID": "SSWAY",
      "CT/Codelist Name": "随访方式",
      "Data Type": "Char",
      "cdnum": 2,
      "Term Decoded": "电话",
      "Term  Dictionaries": NaN,
      "Version": NaN,
      "flag": NaN
    },
    {
      "CT/CodelistID": "SSWAY",
      "CT/Codelist Name": "随访方式",
      "Data Type": "Char",
      "cdnum": 3,
      "Term Decoded": "电话随访",
      "Term  Dictionaries": NaN,
      "Version": NaN,
      "flag": NaN
    },
    {
      "CT/CodelistID": "SSWAY",
      "CT/Codelist Name": "随访方式",
      "Data Type": "Char",
      "cdnum": 4,
      "Term Decoded": "面诊",
      "Term  Dictionaries": NaN,
      "Version": NaN,
      "flag": NaN
    },
    {
      "CT/CodelistID": "TRTEST",
      "CT/Codelist Name": "TR检查项名称",
      "Data Type": "Char",
      "cdnum": 1,
      "Term Decoded": "病灶状态",
      "Term  Dictionaries": NaN,
      "Version": NaN,
      "flag": NaN
    },
    {
      "CT/CodelistID": "TRTEST",
      "CT/Codelist Name": "TR检查项名称",
      "Data Type": "Char",
      "cdnum": 2,
      "Term Decoded": "最长直径或淋巴结短轴",
      "Term  Dictionaries": NaN,
      "Version": NaN,
      "flag": NaN
    },
    {
      "CT/CodelistID": "TRTEST",
      "CT/Codelist Name": "TR检查项名称",
      "Data Type": "Char",
      "cdnum": 3,
      "Term Decoded": "靶病灶总径",
      "Term  Dictionaries": NaN,
      "Version": NaN,
      "flag": NaN
    },
    {
      "CT/CodelistID": "TRTESTCD",
      "CT/Codelist Name": "TR检查项简称",
      "Data Type": "Char",
      "cdnum": 1,
      "Term Decoded": "TUMSTATE",
      "Term  Dictionaries": "病灶状态",
      "Version": NaN,
      "flag": NaN
    },
    {
      "CT/CodelistID": "TRTESTCD",
      "CT/Codelist Name": "TR检查项简称",
      "Data Type": "Char",
      "cdnum": 2,
      "Term Decoded": "DIAMETER",
      "Term  Dictionaries": "最长直径或淋巴结短轴",
      "Version": NaN,
      "flag": NaN
    },
    {
      "CT/CodelistID": "TRTESTCD",
      "CT/Codelist Name": "TR检查项简称",
      "Data Type": "Char",
      "cdnum": 3,
      "Term Decoded": "SUMDIAM",
      "Term  Dictionaries": "靶病灶总径",
      "Version": NaN,
      "flag": NaN
    },
    {
      "CT/CodelistID": "TSPARM",
      "CT/Codelist Name": "TS Parameter",
      "Data Type": "Char",
      "cdnum": 1,
      "Term Decoded": "Trial Title",
      "Term  Dictionaries": NaN,
      "Version": NaN,
      "flag": NaN
    },
    {
      "CT/CodelistID": "TSPARM",
      "CT/Codelist Name": "TS Parameter",
      "Data Type": "Char",
      "cdnum": 2,
      "Term Decoded": "Trial Title",
      "Term  Dictionaries": NaN,
      "Version": NaN,
      "flag": NaN
    },
    {
      "CT/CodelistID": "TSPARM",
      "CT/Codelist Name": "TS Parameter",
      "Data Type": "Char",
      "cdnum": 3,
      "Term Decoded": "Clinical Study Sponsor",
      "Term  Dictionaries": NaN,
      "Version": NaN,
      "flag": NaN
    },
    {
